"Time (s)","Linear Acceleration x (m/s^2)","Linear Acceleration y (m/s^2)","Linear Acceleration z (m/s^2)","Absolute acceleration (m/s^2)"
5.304428700E-2,-2.999999933E-2,-4.600000009E-2,-1.319999993E-1,1.429685272E-1
6.278101300E-2,-3.999999911E-2,-7.100000232E-2,-2.080000043E-1,2.233942749E-1
7.251785900E-2,-7.000000030E-2,-1.319999993E-1,-4.029999971E-1,4.298057672E-1
8.225456000E-2,-2.099999934E-1,-1.819999963E-1,-4.480000138E-1,5.271887786E-1
9.199140500E-2,-2.619999945E-1,-1.700000018E-1,-3.070000112E-1,4.379417822E-1
1.017280990E-1,-1.920000017E-1,-1.729999930E-1,-7.400000095E-2,2.688289388E-1
1.114649430E-1,-7.100000232E-2,-2.060000002E-1,1.439999938E-1,2.611761831E-1
1.212016370E-1,1.030000001E-1,-2.150000036E-1,3.070000112E-1,3.886939779E-1
1.309384820E-1,1.780000031E-1,-1.850000024E-1,3.140000105E-1,4.055921703E-1
1.406751660E-1,2.380000055E-1,-1.209999993E-1,2.380000055E-1,3.576716442E-1
1.504117810E-1,3.619999886E-1,-9.200000018E-2,2.039999962E-1,4.255866424E-1
1.601486060E-1,5.360000134E-1,-3.799999878E-2,2.300000042E-1,5.844997999E-1
1.698853000E-1,6.039999723E-1,8.999999613E-3,2.049999982E-1,6.379043548E-1
1.796221540E-1,5.989999771E-1,9.300000221E-2,1.500000060E-1,6.244597463E-1
1.893588480E-1,4.920000136E-1,1.369999945E-1,1.720000058E-1,5.389035293E-1
1.990957020E-1,3.840000033E-1,1.620000005E-1,1.659999937E-1,4.486156491E-1
2.088323960E-1,2.960000038E-1,1.850000024E-1,7.500000298E-2,3.570238138E-1
2.185692450E-1,2.500000000E-1,1.899999976E-1,-1.799999923E-2,3.145218579E-1
2.283059390E-1,2.099999934E-1,2.220000029E-1,-6.499999762E-2,3.124243880E-1
2.380427790E-1,1.490000039E-1,2.249999940E-1,-4.199999943E-2,2.731116959E-1
2.477794730E-1,1.209999993E-1,2.029999942E-1,-4.000000190E-3,2.363598897E-1
2.575163460E-1,1.030000001E-1,1.089999974E-1,-2.000000095E-3,1.499799968E-1
2.672530630E-1,8.500000089E-2,4.999999888E-3,-2.999999933E-2,9.027735104E-2
2.769899080E-1,4.800000042E-2,-6.800000370E-2,-4.800000042E-2,9.608330023E-2
2.867265160E-1,-3.700000048E-2,-6.700000167E-2,-2.529999912E-1,2.643236573E-1
2.964632060E-1,1.000000047E-3,-1.519999951E-1,-3.009999990E-1,3.372031998E-1
3.062000610E-1,4.899999872E-2,-2.409999967E-1,-2.720000148E-1,3.666960680E-1
3.159367560E-1,4.699999839E-2,-2.560000122E-1,-2.430000007E-1,3.560814604E-1
3.256735760E-1,3.700000048E-2,-2.709999979E-1,-2.300000042E-1,3.573653604E-1
3.354102700E-1,4.199999943E-2,-2.319999933E-1,-1.089999974E-1,2.597479476E-1
3.451470900E-1,6.700000167E-2,-2.099999934E-1,8.360000253E-1,8.645721715E-1
3.548837850E-1,1.400000006E-1,-3.569999933E-1,9.599999785E-1,1.033754784E0
3.646206390E-1,6.899999827E-2,-2.220000029E-1,6.240000129E-1,6.658986538E-1
3.743573330E-1,-3.299999982E-2,1.799999923E-2,2.140000015E-1,2.172763232E-1
3.840941630E-1,-5.200000107E-2,9.300000221E-2,5.799999833E-2,1.213136444E-1
3.938308570E-1,2.600000054E-2,6.100000069E-2,8.200000226E-2,1.054561543E-1
4.035677160E-1,9.300000221E-2,3.299999982E-2,5.799999833E-2,1.144639690E-1
4.133044100E-1,1.040000021E-1,6.899999827E-2,8.799999952E-2,1.527121479E-1
4.230410260E-1,9.700000286E-2,8.100000024E-2,8.799999952E-2,1.539935080E-1
4.327778690E-1,8.500000089E-2,6.400000304E-2,1.200000010E-2,1.070747428E-1
4.425145870E-1,1.239999980E-1,3.099999949E-2,-1.099999994E-1,1.686327351E-1
4.522514310E-1,5.000000075E-2,1.300000027E-2,-2.400000021E-2,5.696490228E-2
4.619881500E-1,-1.600000076E-2,-8.000000380E-3,3.400000185E-2,3.841874746E-2
4.717249940E-1,7.100000232E-2,-4.500000179E-2,-8.399999887E-2,1.188360227E-1
4.814616880E-1,1.010000035E-1,-4.199999943E-2,-1.739999950E-1,2.055261514E-1
4.911985320E-1,9.000000358E-2,-1.700000092E-2,-2.220000029E-1,2.401520392E-1
5.009352270E-1,1.019999981E-1,2.000000095E-3,-2.230000049E-1,2.452284686E-1
5.106720710E-1,8.100000024E-2,3.000000026E-3,-1.729999930E-1,1.910471083E-1
5.204087700E-1,7.800000161E-2,1.200000010E-2,-1.239999980E-1,1.469829914E-1
5.301456140E-1,7.800000161E-2,8.000000380E-3,-8.900000155E-2,1.186128177E-1
5.398823000E-1,9.600000083E-2,-3.000000026E-3,-7.999999821E-2,1.249999995E-1
5.496191440E-1,8.500000089E-2,-3.400000185E-2,-8.900000155E-2,1.276792879E-1
5.593557460E-1,7.500000298E-2,-8.399999887E-2,-1.159999967E-1,1.616694142E-1
5.690926670E-1,3.599999845E-2,-9.700000286E-2,-1.169999987E-1,1.561857872E-1
5.788292950E-1,-1.400000043E-2,-1.199999973E-1,-6.899999827E-2,1.391294330E-1
5.885659870E-1,-6.400000304E-2,-1.280000061E-1,4.300000146E-2,1.494289198E-1
5.983028400E-1,-1.490000039E-1,-1.570000052E-1,1.270000041E-1,2.509561791E-1
6.080395350E-1,-1.659999937E-1,-1.749999970E-1,2.169999927E-1,3.244533768E-1
6.177763990E-1,-1.239999980E-1,-2.099999934E-1,2.829999924E-1,3.735839831E-1
6.275130930E-1,-1.099999994E-1,-2.000000030E-1,1.420000046E-1,2.688196466E-1
6.372499410E-1,-1.129999980E-1,-1.979999989E-1,3.999999911E-2,2.314584176E-1
6.469866460E-1,-1.030000001E-1,-1.710000038E-1,-1.300000027E-2,2.000474977E-1
6.567234900E-1,-1.239999980E-1,-1.239999980E-1,-8.600000292E-2,1.953151287E-1
6.664601840E-1,-1.209999993E-1,-6.400000304E-2,-1.360000074E-1,1.929585506E-1
6.761970280E-1,-1.070000008E-1,-2.400000021E-2,-1.120000035E-1,1.567450189E-1
6.859336460E-1,-8.200000226E-2,-8.000000380E-3,-6.599999964E-2,1.055651473E-1
6.956703360E-1,-3.200000152E-2,-3.000000026E-3,-4.399999976E-2,5.448853160E-2
7.054071820E-1,3.000000026E-3,3.400000185E-2,-6.000000052E-3,3.465544873E-2
7.151441050E-1,1.449999958E-1,1.150000021E-1,9.700000286E-2,2.089473614E-1
7.248807180E-1,1.309999973E-1,1.469999999E-1,1.089999974E-1,2.250577674E-1
7.346176390E-1,2.440000027E-1,1.169999987E-1,2.099999972E-2,2.714148136E-1
7.443542320E-1,6.409999728E-1,2.419999987E-1,1.280000061E-1,6.970143227E-1
7.540909290E-1,9.929999709E-1,4.410000145E-1,2.890000045E-1,1.124300208E0
7.638277880E-1,1.212000012E0,5.759999752E-1,3.659999967E-1,1.390926310E0
7.735644820E-1,1.276000023E0,5.550000072E-1,3.799999952E-1,1.442428876E0
7.833013550E-1,1.047000051E0,3.829999864E-1,2.619999945E-1,1.145225782E0
7.930380500E-1,6.660000086E-1,1.609999985E-1,7.699999958E-2,6.894969259E-1
8.027748940E-1,2.969999909E-1,-2.899999917E-2,-9.200000018E-2,3.122723084E-1
8.125115880E-1,2.199999988E-2,-1.640000045E-1,-2.049999982E-1,2.634482886E-1
8.222484360E-1,-1.230000034E-1,-2.380000055E-1,-3.009999990E-1,4.029565769E-1
8.319851310E-1,-2.070000023E-1,-2.540000081E-1,-3.479999900E-1,4.779843074E-1
8.417219950E-1,-2.370000035E-1,-2.259999961E-1,-3.149999976E-1,4.543896988E-1
8.514586120E-1,-2.290000021E-1,-2.500000000E-1,-1.749999970E-1,3.815311258E-1
8.611953170E-1,-2.080000043E-1,-2.549999952E-1,-4.199999943E-2,3.317423689E-1
8.709321630E-1,-2.039999962E-1,-2.060000002E-1,1.019999981E-1,3.073369456E-1
8.806688900E-1,-1.570000052E-1,-1.340000033E-1,3.589999974E-1,4.141086822E-1
8.904057340E-1,-1.570000052E-1,-6.800000370E-2,5.709999800E-1,5.960821917E-1
9.001424150E-1,-2.290000021E-1,-2.000000095E-3,5.099999905E-1,5.590572343E-1
9.098792350E-1,-3.319999874E-1,2.700000070E-2,3.619999886E-1,4.919318889E-1
9.196159390E-1,-3.459999859E-1,-1.000000047E-3,2.129999995E-1,4.063077529E-1
9.293527830E-1,-2.230000049E-1,-3.299999982E-2,1.000000047E-3,2.254307037E-1
9.390894780E-1,-5.999999866E-2,-1.400000043E-2,-1.700000018E-1,1.808203541E-1
9.488263220E-1,5.499999970E-2,3.099999949E-2,-2.969999909E-1,3.036362866E-1
9.585629430E-1,1.199999973E-1,5.400000140E-2,-4.300000072E-1,4.496843400E-1
9.682996340E-1,1.759999990E-1,9.000000358E-2,-5.130000114E-1,5.497681439E-1
9.780364900E-1,2.310000062E-1,7.100000232E-2,-5.189999938E-1,5.725058923E-1
9.877731840E-1,2.509999871E-1,5.900000036E-2,-4.309999943E-1,5.022379801E-1
9.975100140E-1,2.560000122E-1,5.000000075E-2,-2.879999876E-1,3.885614484E-1
1.007246709E0,2.409999967E-1,6.499999762E-2,-1.389999986E-1,2.857043886E-1
1.016983567E0,2.020000070E-1,8.500000089E-2,7.000000216E-3,2.192669674E-1
1.026720251E0,2.169999927E-1,1.570000052E-1,1.609999985E-1,3.125043968E-1
1.036456867E0,1.739999950E-1,1.920000017E-1,2.619999945E-1,3.684888004E-1
1.046193711E0,1.319999993E-1,1.379999965E-1,3.199999928E-1,3.726499621E-1
1.055930405E0,1.410000026E-1,5.799999833E-2,4.180000126E-1,4.449370867E-1
1.065667240E0,9.200000018E-2,-4.899999872E-2,4.979999959E-1,5.087917018E-1
1.075403935E0,4.600000009E-2,-1.250000000E-1,5.559999943E-1,5.717315748E-1
1.085140774E0,3.900000080E-2,-2.220000029E-1,5.130000114E-1,5.603338407E-1
1.094877468E0,8.999999613E-3,-2.860000134E-1,4.050000012E-1,4.958850760E-1
1.104614317E0,-4.999999888E-3,-2.910000086E-1,2.800000012E-1,4.038638455E-1
1.114351012E0,-2.800000086E-2,-2.689999938E-1,1.560000032E-1,3.122194704E-1
1.124087827E0,-5.600000173E-2,-2.179999948E-1,7.400000095E-2,2.369303654E-1
1.133824444E0,-4.899999872E-2,-1.449999958E-1,8.000000380E-3,1.532644730E-1
1.143561355E0,-5.900000036E-2,-7.900000364E-2,-1.799999923E-2,1.002297390E-1
1.153297973E0,-6.800000370E-2,-1.300000027E-2,-2.000000095E-3,6.926038197E-2
1.163034646E0,-6.899999827E-2,3.999999911E-2,0.000000000E0,7.975587558E-2
1.172771490E0,-8.799999952E-2,9.099999815E-2,-7.000000216E-3,1.267832780E-1
1.182508184E0,-5.700000003E-2,1.340000033E-1,7.000000216E-3,1.457875197E-1
1.192245029E0,-3.299999982E-2,1.400000006E-1,-1.999999955E-2,1.452205224E-1
1.201981703E0,2.000000095E-3,1.509999931E-1,-6.499999762E-2,1.644080217E-1
1.211718547E0,2.300000004E-2,1.529999971E-1,-9.200000018E-2,1.800055531E-1
1.221455228E0,6.899999827E-2,1.490000039E-1,-8.299999684E-2,1.839864137E-1
1.231192072E0,8.200000226E-2,1.459999979E-1,-6.499999762E-2,1.796246070E-1
1.240928689E0,8.699999750E-2,1.199999973E-1,-4.399999976E-2,1.546124151E-1
1.250665379E0,6.400000304E-2,1.010000035E-1,1.600000076E-2,1.206358202E-1
1.260402235E0,6.100000069E-2,7.999999821E-2,8.500000089E-2,1.317042139E-1
1.270138929E0,3.400000185E-2,3.400000185E-2,1.070000008E-1,1.173072906E-1
1.279875773E0,1.999999955E-2,-1.300000027E-2,1.230000034E-1,1.252916630E-1
1.289612467E0,2.899999917E-2,-5.700000003E-2,1.580000073E-1,1.704523460E-1
1.299349293E0,2.600000054E-2,-7.199999690E-2,2.010000050E-1,2.150837083E-1
1.309085910E0,5.200000107E-2,-1.010000035E-1,2.039999962E-1,2.334973218E-1
1.318822605E0,7.699999958E-2,-1.199999973E-1,1.679999977E-1,2.203474496E-1
1.328559452E0,1.159999967E-1,-1.199999973E-1,1.480000019E-1,2.230694940E-1
1.338296126E0,1.360000074E-1,-1.220000014E-1,9.899999946E-2,2.078003904E-1
1.348032970E0,1.620000005E-1,-1.190000027E-1,1.600000076E-2,2.016457310E-1
1.357769655E0,1.169999987E-1,-1.260000020E-1,-7.199999690E-2,1.864108359E-1
1.367506271E0,9.000000358E-2,-1.120000035E-1,-1.459999979E-1,2.048414040E-1
1.377243201E0,2.099999972E-2,-7.500000298E-2,-1.689999998E-1,1.860833156E-1
1.386980052E0,-2.300000004E-2,-6.100000069E-2,-1.529999971E-1,1.663099492E-1
1.396716746E0,-6.100000069E-2,-3.400000185E-2,-9.600000083E-2,1.187139435E-1
1.406453591E0,-8.100000024E-2,-1.300000027E-2,-6.300000101E-2,1.034359714E-1
1.416190285E0,-9.200000018E-2,2.099999972E-2,-1.600000076E-2,9.571311324E-2
1.425926881E0,-7.000000030E-2,3.599999845E-2,3.700000048E-2,8.697700826E-2
1.435663725E0,-2.199999988E-2,4.800000042E-2,7.500000298E-2,9.172240992E-2
1.445400410E0,1.600000076E-2,7.000000030E-2,1.010000035E-1,1.239233665E-1
1.455137254E0,3.900000080E-2,7.100000232E-2,1.089999974E-1,1.358050066E-1
1.464873948E0,3.500000015E-2,7.900000364E-2,1.340000033E-1,1.594427843E-1
1.474610792E0,5.200000107E-2,6.800000370E-2,1.539999992E-1,1.761930769E-1
1.484347425E0,7.299999893E-2,4.399999976E-2,1.580000073E-1,1.795243775E-1
1.494084115E0,9.799999744E-2,3.500000015E-2,1.749999970E-1,2.036025502E-1
1.503820946E0,8.900000155E-2,3.599999845E-2,1.850000024E-1,2.084274479E-1
1.513557641E0,7.800000161E-2,3.900000080E-2,1.360000074E-1,1.615580463E-1
1.523294466E0,5.299999937E-2,2.800000086E-2,8.100000024E-2,1.007670582E-1
1.533031160E0,3.299999982E-2,8.999999613E-3,1.999999955E-2,3.962322505E-2
1.542768004E0,3.400000185E-2,1.000000047E-3,-6.000000052E-3,3.453983391E-2
1.552504613E0,9.999999776E-3,-1.600000076E-2,1.999999955E-2,2.749545421E-2
1.562241298E0,8.000000380E-3,-3.700000048E-2,4.100000113E-2,5.580322692E-2
1.571978144E0,-8.000000380E-3,-6.800000370E-2,2.800000086E-2,7.397297180E-2
1.581715076E0,-1.400000043E-2,-9.600000083E-2,-1.200000010E-2,9.775479617E-2
1.591451694E0,0.000000000E0,-9.000000358E-2,-8.799999952E-2,1.258729540E-1
1.601188386E0,3.799999878E-2,-7.900000364E-2,-1.289999932E-1,1.559679413E-1
1.610925230E0,6.899999827E-2,-4.399999976E-2,-1.580000073E-1,1.779353873E-1
1.620661944E0,1.040000021E-1,-4.000000190E-3,-1.220000014E-1,1.603620927E-1
1.630398788E0,1.230000034E-1,1.799999923E-2,-6.300000101E-2,1.393628391E-1
1.640135459E0,1.220000014E-1,1.499999966E-2,-1.099999994E-2,1.234098875E-1
1.649872075E0,9.499999881E-2,2.899999917E-2,2.400000021E-2,1.021861034E-1
1.659608900E0,6.400000304E-2,5.700000003E-2,6.400000304E-2,1.069626139E-1
1.669345594E0,9.999999776E-3,5.000000075E-2,9.200000018E-2,1.051855508E-1
1.679082452E0,-3.400000185E-2,5.200000107E-2,1.180000007E-1,1.333566661E-1
1.688819147E0,-6.100000069E-2,1.700000092E-2,1.800000072E-1,1.908140527E-1
1.698555771E0,-7.999999821E-2,-2.199999988E-2,2.549999952E-1,2.681585301E-1
1.708292615E0,-6.700000167E-2,-2.300000004E-2,2.790000141E-1,2.878524068E-1
1.718029519E0,-9.799999744E-2,-2.999999933E-2,2.189999968E-1,2.417953640E-1
1.727766137E0,-1.260000020E-1,-4.899999872E-2,1.140000001E-1,1.768417383E-1
1.737502834E0,-1.110000014E-1,-6.100000069E-2,5.700000003E-2,1.388920459E-1
1.747239678E0,-4.699999839E-2,-5.999999866E-2,2.099999972E-2,7.905693945E-2
1.756976387E0,4.100000113E-2,-4.399999976E-2,-3.200000152E-2,6.812488656E-2
1.766713222E0,8.600000292E-2,-8.000000380E-3,-7.199999690E-2,1.124455427E-1
1.776449916E0,1.010000035E-1,0.000000000E0,-1.019999981E-1,1.435444193E-1
1.786186773E0,9.200000018E-2,9.999999776E-3,-8.699999750E-2,1.270157455E-1
1.795923468E0,7.800000161E-2,-8.000000380E-3,-9.000000358E-2,1.193649903E-1
1.805660079E0,4.899999872E-2,-4.999999888E-3,-6.400000304E-2,8.075890206E-2
1.815396923E0,3.000000026E-3,-4.000000190E-3,-2.999999933E-2,3.041381202E-2
1.825133608E0,-1.499999966E-2,-2.000000095E-3,-3.000000026E-3,1.542724831E-2
1.834870453E0,-2.700000070E-2,-1.700000092E-2,3.400000185E-2,4.662617500E-2
1.844607165E0,-3.700000048E-2,-1.899999939E-2,3.200000152E-2,5.247856810E-2
1.854343780E0,-2.600000054E-2,-1.999999955E-2,2.700000070E-2,4.248529214E-2
1.864080620E0,-4.100000113E-2,-2.899999917E-2,4.500000179E-2,6.743144819E-2
1.873817314E0,-1.700000092E-2,-1.200000010E-2,7.299999893E-2,7.590783805E-2
1.883554153E0,1.799999923E-2,3.000000026E-3,5.099999905E-2,5.416640910E-2
1.893290847E0,5.999999866E-2,4.000000190E-3,4.999999888E-3,6.034069804E-2
1.903027721E0,6.700000167E-2,1.099999994E-2,-1.300000027E-2,6.913031339E-2
1.912764415E0,9.200000018E-2,3.799999878E-2,-4.399999976E-2,1.088301425E-1
1.922501302E0,1.049999967E-1,5.999999866E-2,-9.099999815E-2,1.513472788E-1
1.932237996E0,1.110000014E-1,5.999999866E-2,-1.289999932E-1,1.804494345E-1
1.941974812E0,1.140000001E-1,5.499999970E-2,-1.239999980E-1,1.771919848E-1
1.951711429E0,1.260000020E-1,3.799999878E-2,-8.900000155E-2,1.588741662E-1
1.961448110E0,8.100000024E-2,2.300000004E-2,-2.400000021E-2,8.755569685E-2
1.971184957E0,2.700000070E-2,-3.000000026E-3,7.100000232E-2,7.601973670E-2
1.980921651E0,-2.700000070E-2,-3.500000015E-2,1.379999965E-1,1.449068635E-1
1.990658495E0,-6.499999762E-2,-8.900000155E-2,1.800000072E-1,2.110592394E-1
2.000395126E0,-9.200000018E-2,-8.399999887E-2,1.930000037E-1,2.297150436E-1
2.010132048E0,-1.030000001E-1,-8.100000024E-2,1.800000072E-1,2.226432183E-1
2.019868660E0,-1.000000015E-1,-4.500000179E-2,1.620000005E-1,1.956246421E-1
2.029605342E0,-1.089999974E-1,-3.500000015E-2,1.379999965E-1,1.793042065E-1
2.039342210E0,-6.199999899E-2,-1.499999966E-2,1.080000028E-1,1.254312579E-1
2.049078905E0,6.000000052E-3,-8.000000380E-3,4.800000042E-2,4.903060317E-2
2.058815745E0,2.899999917E-2,4.000000190E-3,1.999999955E-2,3.545419489E-2
2.068552439E0,5.900000036E-2,3.500000015E-2,1.300000027E-2,6.982120065E-2
2.078289268E0,2.099999972E-2,2.800000086E-2,-1.000000047E-3,3.501428332E-2
2.088025886E0,-4.999999888E-3,2.800000086E-2,-2.000000095E-3,2.851315569E-2
2.097762605E0,0.000000000E0,8.000000380E-3,-1.000000047E-3,8.062258131E-3
2.107499451E0,2.999999933E-2,-7.000000216E-3,1.499999966E-2,3.426368271E-2
2.117236136E0,2.700000070E-2,4.999999888E-3,2.700000070E-2,3.850974000E-2
2.126972985E0,2.099999972E-2,1.700000092E-2,3.900000080E-2,4.744470552E-2
2.136709602E0,0.000000000E0,2.099999972E-2,3.299999982E-2,3.911521413E-2
2.146446293E0,2.000000095E-3,2.099999972E-2,-2.000000095E-3,2.118961984E-2
2.156183139E0,1.000000047E-3,1.000000047E-3,-5.299999937E-2,5.301886394E-2
2.165919814E0,4.999999888E-3,2.199999988E-2,-4.600000009E-2,5.123475385E-2
2.175656658E0,8.999999613E-3,2.600000054E-2,-2.999999933E-2,4.070626464E-2
2.185393348E0,1.999999955E-2,2.400000021E-2,1.200000010E-2,3.346640098E-2
2.195130192E0,1.300000027E-2,1.200000010E-2,6.700000167E-2,6.929646624E-2
2.204866862E0,2.999999933E-2,-2.500000037E-2,1.169999987E-1,1.233450432E-1
2.214603706E0,1.499999966E-2,-4.500000179E-2,1.560000032E-1,1.630521424E-1
2.224340329E0,-4.000000190E-3,-9.000000358E-2,1.539999992E-1,1.784152471E-1
2.234077019E0,-1.200000010E-2,-1.089999974E-1,1.620000005E-1,1.956246395E-1
2.243813889E0,-1.899999939E-2,-1.099999994E-1,1.239999980E-1,1.668442368E-1
2.253550584E0,-1.499999966E-2,-9.700000286E-2,6.800000370E-2,1.194068719E-1
2.263287213E0,-9.999999776E-3,-8.600000292E-2,-1.700000092E-2,8.823265002E-2
2.273024057E0,-1.899999939E-2,-2.400000021E-2,-9.399999678E-2,9.885848159E-2
2.282760990E0,-4.100000113E-2,3.599999845E-2,-1.080000028E-1,1.210000024E-1
2.292497608E0,-3.799999878E-2,4.800000042E-2,-1.099999994E-1,1.258888391E-1
2.302234314E0,-1.200000010E-2,3.799999878E-2,-1.099999994E-1,1.169957255E-1
2.311971158E0,-4.999999888E-3,1.400000043E-2,-8.699999750E-2,8.826097425E-2
2.321707863E0,-1.700000092E-2,1.400000043E-2,-1.400000043E-2,2.609597777E-2
2.331444707E0,-2.899999917E-2,-8.000000380E-3,7.100000232E-2,7.711031246E-2
2.341181386E0,-8.999999613E-3,-3.700000048E-2,1.230000034E-1,1.287594690E-1
2.350918001E0,2.000000095E-3,-4.899999872E-2,1.560000032E-1,1.635267589E-1
2.360654856E0,-1.000000047E-3,-2.999999933E-2,1.700000018E-1,1.726296631E-1
2.370391550E0,-1.600000076E-2,-4.999999888E-3,1.659999937E-1,1.668442325E-1
2.380128365E0,8.000000380E-3,1.300000027E-2,1.400000006E-1,1.408296850E-1
2.389865059E0,5.700000003E-2,2.199999988E-2,5.999999866E-2,8.563293664E-2
2.399601889E0,5.799999833E-2,2.700000070E-2,-1.300000027E-2,6.528399384E-2
2.409338583E0,6.499999762E-2,3.500000015E-2,-2.199999988E-2,7.703245871E-2
2.419075427E0,6.400000304E-2,2.899999917E-2,1.099999994E-2,7.111961993E-2
2.428812045E0,5.900000036E-2,-8.999999613E-3,2.500000037E-2,6.470703249E-2
2.438548735E0,2.600000054E-2,-4.100000113E-2,0.000000000E0,4.854894562E-2
2.448285581E0,-3.900000080E-2,-4.899999872E-2,-4.999999888E-3,6.282515369E-2
2.458022294E0,-6.700000167E-2,-4.300000146E-2,-2.199999988E-2,8.259540147E-2
2.467759139E0,-6.899999827E-2,-2.800000086E-2,-1.700000092E-2,7.638062478E-2
2.477495824E0,-3.700000048E-2,-3.299999982E-2,-3.000000026E-3,4.966890399E-2
2.487232439E0,-4.399999976E-2,-1.099999994E-2,-1.999999955E-2,4.956813452E-2
2.496969278E0,-7.000000030E-2,0.000000000E0,-1.099999994E-2,7.085901524E-2
2.506705982E0,-8.500000089E-2,-8.000000380E-3,-1.099999994E-2,8.608135778E-2
2.516442826E0,-5.299999937E-2,-1.700000092E-2,2.400000021E-2,6.061352964E-2
2.526179501E0,-2.800000086E-2,-2.700000070E-2,7.800000161E-2,8.716077293E-2
2.535916117E0,9.999999776E-3,-1.499999966E-2,1.040000021E-1,1.055509376E-1
2.545653029E0,2.899999917E-2,-2.300000004E-2,8.900000155E-2,9.638983468E-2
2.555389646E0,3.799999878E-2,-2.400000021E-2,7.900000364E-2,9.089004616E-2
2.565126480E0,9.999999776E-3,-1.099999994E-2,4.500000179E-2,4.739198408E-2
2.574863175E0,1.499999966E-2,1.000000047E-3,8.999999613E-3,1.752141498E-2
2.584600009E0,1.700000092E-2,1.099999994E-2,-4.300000146E-2,4.752894019E-2
2.594336703E0,2.700000070E-2,4.300000146E-2,-8.399999887E-2,9.815294174E-2
2.604073311E0,0.000000000E0,7.299999893E-2,-1.180000007E-1,1.387551801E-1
2.613810155E0,-2.899999917E-2,8.100000024E-2,-9.700000286E-2,1.296572425E-1
2.623546867E0,-2.999999933E-2,8.699999750E-2,-2.899999917E-2,9.648833855E-2
2.633283711E0,2.500000037E-2,6.400000304E-2,2.300000004E-2,7.245688656E-2
2.643020396E0,4.399999976E-2,5.000000075E-2,5.900000036E-2,8.897752579E-2
2.652757240E0,5.000000075E-2,1.999999955E-2,1.000000015E-1,1.135781685E-1
2.662493944E0,2.199999988E-2,2.000000095E-3,1.449999958E-1,1.466731018E-1
2.672230788E0,4.699999839E-2,-4.600000009E-2,1.659999937E-1,1.785525070E-1
2.681967511E0,6.400000304E-2,-1.080000028E-1,1.609999985E-1,2.041592528E-1
2.691704126E0,6.599999964E-2,-1.150000021E-1,1.439999938E-1,1.957472826E-1
2.701440966E0,3.500000015E-2,-1.169999987E-1,1.049999967E-1,1.610558879E-1
2.711177661E0,1.899999939E-2,-1.299999952E-1,6.899999827E-2,1.483981081E-1
2.720914515E0,2.000000095E-3,-1.169999987E-1,6.300000101E-2,1.328984568E-1
2.730651132E0,1.400000043E-2,-8.799999952E-2,6.100000069E-2,1.079861103E-1
2.740387823E0,4.199999943E-2,-6.899999827E-2,1.000000047E-3,8.078365994E-2
2.750124669E0,1.899999939E-2,-2.899999917E-2,-5.999999866E-2,6.929646288E-2
2.759861358E0,-2.700000070E-2,1.499999966E-2,-6.700000167E-2,7.377669179E-2
2.769598202E0,-5.000000075E-2,4.500000179E-2,-6.199999899E-2,9.148223931E-2
2.779334902E0,-7.199999690E-2,3.500000015E-2,-5.299999937E-2,9.601041349E-2
2.789071746E0,-7.500000298E-2,3.599999845E-2,-8.000000380E-3,8.357631448E-2
2.798808426E0,-9.600000083E-2,4.399999976E-2,4.199999943E-2,1.136485816E-1
2.808545041E0,-1.010000035E-1,4.699999839E-2,7.999999821E-2,1.371495544E-1
2.818281876E0,-1.000000015E-1,3.400000185E-2,1.159999967E-1,1.568821202E-1
2.828018579E0,-1.019999981E-1,3.900000080E-2,1.199999973E-1,1.622498044E-1
2.837755423E0,-6.599999964E-2,3.700000048E-2,1.140000001E-1,1.368247054E-1
2.847492117E0,0.000000000E0,2.800000086E-2,1.190000027E-1,1.222497472E-1
2.857228962E0,3.099999949E-2,3.500000015E-2,7.000000030E-2,8.417838215E-2
2.866965599E0,4.899999872E-2,1.999999955E-2,-3.000000026E-3,5.300943177E-2
2.876702520E0,5.499999970E-2,2.899999917E-2,-7.500000298E-2,9.742176536E-2
2.886439133E0,1.019999981E-1,4.899999872E-2,-8.699999750E-2,1.427375180E-1
2.896175825E0,1.190000027E-1,3.700000048E-2,-7.400000095E-2,1.449344708E-1
2.905912649E0,1.340000033E-1,3.700000048E-2,-5.900000036E-2,1.510165586E-1
2.915649343E0,9.799999744E-2,1.700000092E-2,-3.999999911E-2,1.072054078E-1
2.925386203E0,8.100000024E-2,8.000000380E-3,-1.600000076E-2,8.295179365E-2
2.935122820E0,3.999999911E-2,-3.099999949E-2,1.600000076E-2,5.307541730E-2
2.944859491E0,4.199999943E-2,-5.600000173E-2,4.899999872E-2,8.544588943E-2
2.954596337E0,2.600000054E-2,-5.999999866E-2,4.800000042E-2,8.111719859E-2
2.964333051E0,-8.999999613E-3,-5.499999970E-2,3.799999878E-2,6.745368683E-2
2.974069895E0,-6.700000167E-2,-3.799999878E-2,3.299999982E-2,8.379737537E-2
2.983806569E0,-8.600000292E-2,-3.799999878E-2,1.899999939E-2,9.592184520E-2
2.993543219E0,-7.299999893E-2,-3.299999982E-2,2.300000004E-2,8.334866426E-2
3.003280068E0,-6.899999827E-2,-2.800000086E-2,4.199999943E-2,8.549268836E-2
3.013016762E0,-7.999999821E-2,-8.000000380E-3,4.899999872E-2,9.415412680E-2
3.022753596E0,-5.999999866E-2,3.000000026E-3,4.899999872E-2,7.752418793E-2
3.032490291E0,-3.400000185E-2,-1.000000047E-3,4.699999839E-2,5.801723860E-2
3.042227140E0,-2.600000054E-2,-1.000000047E-3,3.700000048E-2,4.523273221E-2
3.051963757E0,-7.000000216E-3,3.000000026E-3,2.600000054E-2,2.709243494E-2
3.061700457E0,-8.000000380E-3,1.200000010E-2,7.000000216E-3,1.603121990E-2
3.071437303E0,-2.099999972E-2,1.999999955E-2,-3.000000026E-3,2.915475897E-2
3.081173997E0,-1.200000010E-2,4.600000009E-2,1.000000047E-3,4.754997383E-2
3.090910841E0,1.400000043E-2,4.100000113E-2,1.899999939E-2,4.730750555E-2
3.100647536E0,3.299999982E-2,7.000000216E-3,3.799999878E-2,5.081338306E-2
3.110384151E0,4.500000179E-2,4.000000190E-3,3.500000015E-2,5.714892976E-2
3.120121072E0,1.600000076E-2,-9.999999776E-3,2.600000054E-2,3.212475755E-2
3.129857690E0,4.999999888E-3,-4.000000190E-3,1.799999923E-2,1.910497246E-2
3.139594529E0,4.999999888E-3,3.000000026E-3,-4.999999888E-3,7.681145613E-3
3.149331199E0,4.000000190E-3,3.000000026E-3,-1.099999994E-2,1.208304599E-2
3.159068043E0,1.300000027E-2,-1.000000047E-3,8.999999613E-3,1.584297952E-2
3.168804680E0,3.900000080E-2,0.000000000E0,4.000000190E-3,3.920459239E-2
3.178541370E0,5.600000173E-2,1.000000047E-3,6.000000052E-3,5.632939015E-2
3.188278216E0,4.699999839E-2,1.700000092E-2,4.000000190E-3,5.013980337E-2
3.198014911E0,4.800000042E-2,1.899999939E-2,-2.000000095E-3,5.166236558E-2
3.207751741E0,2.999999933E-2,-3.000000026E-3,-1.200000010E-2,3.244996090E-2
3.217488435E0,8.000000380E-3,-4.000000190E-3,1.999999955E-2,2.190890207E-2
3.227225269E0,-3.500000015E-2,-1.000000047E-3,5.999999866E-2,6.946941665E-2
3.236961887E0,-6.300000101E-2,-2.300000004E-2,1.030000001E-1,1.229105372E-1
3.246698573E0,-7.900000364E-2,-1.899999939E-2,1.180000007E-1,1.432689803E-1
3.256435419E0,-8.699999750E-2,-3.000000026E-3,9.499999881E-2,1.288526264E-1
3.266172137E0,-7.699999958E-2,-4.000000190E-3,6.100000069E-2,9.831581776E-2
3.275908982E0,-5.000000075E-2,1.300000027E-2,4.500000179E-2,6.851277430E-2
3.285645656E0,-2.899999917E-2,7.000000216E-3,1.200000010E-2,3.215586972E-2
3.295382271E0,2.000000095E-3,-6.000000052E-3,-1.999999955E-2,2.097617656E-2
3.305119096E0,9.999999776E-3,-9.999999776E-3,-2.400000021E-2,2.785677657E-2
3.314855800E0,-4.000000190E-3,-1.799999923E-2,-1.400000043E-2,2.315167350E-2
3.324592644E0,-4.000000190E-3,-3.000000026E-3,-3.000000026E-3,5.830952052E-3
3.334329318E0,0.000000000E0,-1.499999966E-2,3.099999949E-2,3.443835011E-2
3.344066163E0,4.999999888E-3,-1.200000010E-2,3.999999911E-2,4.205948086E-2
3.353802843E0,-6.000000052E-3,-7.000000216E-3,3.999999911E-2,4.104875068E-2
3.363539458E0,3.000000026E-3,1.300000027E-2,2.400000021E-2,2.745906075E-2
3.373276292E0,-6.000000052E-3,3.900000080E-2,0.000000000E0,3.945884012E-2
3.383012987E0,1.000000047E-3,5.000000075E-2,-2.099999972E-2,5.424020707E-2
3.392749836E0,4.000000190E-3,3.799999878E-2,-1.700000092E-2,4.182104662E-2
3.402486453E0,7.000000216E-3,1.600000076E-2,-8.000000380E-3,1.920937358E-2
3.412223144E0,4.699999839E-2,-1.099999994E-2,1.899999939E-2,5.187484770E-2
3.421959990E0,2.899999917E-2,-7.000000216E-3,1.200000010E-2,3.215586972E-2
3.431696694E0,0.000000000E0,-1.000000047E-3,2.899999917E-2,2.901723542E-2
3.441433538E0,7.000000216E-3,-9.999999776E-3,5.000000075E-2,5.146843764E-2
3.451170237E0,1.799999923E-2,-2.999999933E-2,4.500000179E-2,5.700000081E-2
3.460907081E0,6.000000052E-3,-2.999999933E-2,3.799999878E-2,4.878524231E-2
3.470643742E0,-8.999999613E-3,-2.899999917E-2,5.499999970E-2,6.282515350E-2
3.480380358E0,-1.999999955E-2,-4.899999872E-2,5.499999970E-2,7.632823739E-2
3.490117235E0,-4.899999872E-2,-4.399999976E-2,7.100000232E-2,9.684007530E-2
3.499853929E0,-4.699999839E-2,-2.700000070E-2,3.700000048E-2,6.562773744E-2
3.509590778E0,-1.499999966E-2,-3.099999949E-2,3.999999911E-2,5.278257181E-2
3.519327473E0,4.000000190E-3,-2.300000004E-2,1.200000010E-2,2.624880961E-2
3.529064326E0,8.000000380E-3,4.999999888E-3,1.499999966E-2,1.772004500E-2
3.538801020E0,8.000000380E-3,2.099999972E-2,3.000000026E-3,2.267156797E-2
3.548537855E0,1.400000043E-2,2.300000004E-2,9.999999776E-3,2.872281340E-2
3.558274473E0,2.000000095E-3,1.300000027E-2,1.700000092E-2,2.149418616E-2
3.568011134E0,-1.000000047E-3,8.999999613E-3,1.200000010E-2,1.503329623E-2
3.577747980E0,-3.000000026E-3,0.000000000E0,1.200000010E-2,1.236931698E-2
3.587484584E0,-8.000000380E-3,-4.000000190E-3,2.700000070E-2,2.844292611E-2
3.597221274E0,7.000000216E-3,-7.000000216E-3,5.299999937E-2,5.391660171E-2
3.606958110E0,6.000000052E-3,7.000000216E-3,7.500000298E-2,7.556454493E-2
3.616694805E0,9.999999776E-3,0.000000000E0,8.500000089E-2,8.558621470E-2
3.626431659E0,2.000000095E-3,2.000000095E-3,9.700000286E-2,9.704123122E-2
3.636168353E0,3.000000026E-3,1.000000047E-3,7.500000298E-2,7.506664004E-2
3.645905211E0,8.999999613E-3,-4.000000190E-3,9.000000358E-2,9.053728866E-2
3.655641906E0,1.300000027E-2,-4.999999888E-3,7.400000095E-2,7.529940336E-2
3.665378545E0,2.400000021E-2,-1.999999955E-2,7.100000232E-2,7.756932591E-2
3.675115389E0,4.000000190E-3,-1.999999955E-2,4.699999839E-2,5.123475219E-2
3.684852121E0,-2.600000054E-2,-2.400000021E-2,2.800000086E-2,4.512205765E-2
3.694588966E0,-2.899999917E-2,6.000000052E-3,1.600000076E-2,3.366006501E-2
3.704325569E0,-3.900000080E-2,-1.099999994E-2,-6.000000052E-3,4.096339905E-2
3.714062490E0,-2.300000004E-2,-1.400000043E-2,-2.600000054E-2,3.742993511E-2
3.723799170E0,-2.099999972E-2,3.000000026E-3,-4.699999839E-2,5.156549076E-2
3.733535786E0,-3.000000026E-3,7.000000216E-3,-6.400000304E-2,6.445153522E-2
3.743272639E0,0.000000000E0,4.000000190E-3,-6.700000167E-2,6.711929846E-2
3.753009333E0,1.400000043E-2,3.000000026E-3,-5.299999937E-2,5.489990843E-2
3.762746173E0,0.000000000E0,7.000000216E-3,-1.899999939E-2,2.024845623E-2
3.772482790E0,2.000000095E-3,1.600000076E-2,3.900000080E-2,4.220189673E-2
3.782219495E0,6.000000052E-3,6.000000052E-3,9.099999815E-2,9.139474638E-2
3.791956307E0,0.000000000E0,-3.000000026E-3,1.159999967E-1,1.160387833E-1
3.801692997E0,-6.000000052E-3,-8.000000380E-3,9.499999881E-2,9.552486472E-2
3.811429612E0,4.000000190E-3,-6.000000052E-3,6.300000101E-2,6.341135647E-2
3.821166519E0,2.700000070E-2,1.999999955E-2,4.399999976E-2,5.536244213E-2
3.830903137E0,8.999999613E-3,2.400000021E-2,8.999999613E-3,2.716615534E-2
3.840640053E0,9.999999776E-3,4.899999872E-2,-1.600000076E-2,5.250714136E-2
3.850376670E0,1.400000043E-2,3.700000048E-2,-1.200000010E-2,4.134005382E-2
3.860113519E0,-2.000000095E-3,2.199999988E-2,-2.000000095E-3,2.218107291E-2
3.869850214E0,-2.899999917E-2,4.000000190E-3,2.300000004E-2,3.722902034E-2
3.879587072E0,-4.100000113E-2,-3.599999845E-2,5.000000075E-2,7.400675683E-2
3.889323689E0,1.000000047E-3,-4.100000113E-2,6.499999762E-2,7.685700868E-2
3.899060394E0,3.000000026E-3,-6.300000101E-2,3.900000080E-2,7.415524385E-2
3.908797240E0,-1.000000047E-3,-4.399999976E-2,1.400000043E-2,4.618441286E-2
3.918533939E0,-3.700000048E-2,-2.099999972E-2,-1.099999994E-2,4.394314534E-2
3.928270783E0,-4.100000113E-2,4.000000190E-3,-3.700000048E-2,5.537147397E-2
3.938007473E0,-1.799999923E-2,1.300000027E-2,-4.399999976E-2,4.928488570E-2
3.947744308E0,-2.000000095E-3,1.400000043E-2,-2.899999917E-2,3.226453105E-2
3.957480925E0,1.600000076E-2,2.600000054E-2,-4.999999888E-3,3.093541742E-2
3.967217597E0,2.199999988E-2,2.600000054E-2,-1.099999994E-2,3.579106063E-2
3.976954443E0,1.999999955E-2,3.200000152E-2,-4.000000190E-3,3.794733299E-2
3.986691137E0,1.999999955E-2,4.199999943E-2,1.300000027E-2,4.830113810E-2
3.996427981E0,2.300000004E-2,4.500000179E-2,6.499999762E-2,8.233468196E-2
4.006164681E0,9.999999776E-3,2.199999988E-2,9.200000018E-2,9.512097573E-2
4.015901525E0,-3.000000026E-3,4.000000190E-3,1.180000007E-1,1.181058854E-1
4.025638228E0,-9.999999776E-3,-1.300000027E-2,1.340000033E-1,1.350000033E-1
4.035374844E0,4.000000190E-3,-3.900000080E-2,1.270000041E-1,1.329135098E-1
4.045111674E0,-1.000000047E-3,-3.599999845E-2,8.200000226E-2,8.956003718E-2
4.054848368E0,3.000000026E-3,-4.699999839E-2,3.200000152E-2,5.693856291E-2
4.064584988E0,-6.000000052E-3,-3.200000152E-2,-9.999999776E-3,3.405877410E-2
4.074321833E0,7.000000216E-3,-3.999999911E-2,-5.299999937E-2,6.676825492E-2
4.084058512E0,3.000000026E-3,-2.400000021E-2,-5.600000173E-2,6.100000167E-2
4.093795356E0,1.600000076E-2,-7.000000216E-3,-1.600000076E-2,2.368543966E-2
4.103532045E0,2.300000004E-2,-9.999999776E-3,-1.600000076E-2,2.974894993E-2
4.113268933E0,5.999999866E-2,-1.999999955E-2,-4.199999943E-2,7.592101009E-2
4.123005646E0,4.399999976E-2,-4.999999888E-3,-5.400000140E-2,6.983552197E-2
4.132742490E0,5.000000075E-2,1.799999923E-2,-2.500000037E-2,5.872818800E-2
4.142479122E0,3.799999878E-2,2.999999933E-2,-4.999999888E-3,4.867237272E-2
4.152215812E0,1.799999923E-2,3.400000185E-2,3.500000015E-2,5.200961554E-2
4.161952658E0,-1.499999966E-2,2.199999988E-2,8.299999684E-2,8.716650423E-2
4.171689352E0,-2.400000021E-2,3.000000026E-3,1.539999992E-1,1.558877794E-1
4.181426203E0,-4.899999872E-2,-2.000000095E-3,2.060000002E-1,2.117569361E-1
4.191162897E0,-6.499999762E-2,-3.299999982E-2,2.199999988E-1,2.317628080E-1
4.200899488E0,-6.899999827E-2,-3.099999949E-2,1.710000038E-1,1.869839593E-1
4.210636332E0,-6.599999964E-2,-2.400000021E-2,1.040000021E-1,1.254910372E-1
4.220373022E0,-5.099999905E-2,2.300000004E-2,8.999999613E-3,5.666568536E-2
4.230109866E0,-1.400000043E-2,5.600000173E-2,-6.400000304E-2,8.618584916E-2
4.239846546E0,2.099999972E-2,9.200000018E-2,-1.030000001E-1,1.396925196E-1
4.249583390E0,3.500000015E-2,9.000000358E-2,-1.120000035E-1,1.478817143E-1
4.259319983E0,5.700000003E-2,8.200000226E-2,-8.699999750E-2,1.324462153E-1
4.269056702E0,7.400000095E-2,4.899999872E-2,-6.100000069E-2,1.076940114E-1
4.278793548E0,6.800000370E-2,3.099999949E-2,-5.200000107E-2,9.104394863E-2
4.288530229E0,8.799999952E-2,2.199999988E-2,-3.299999982E-2,9.652460774E-2
4.298267073E0,6.100000069E-2,4.999999888E-3,-8.999999613E-3,6.186275192E-2
4.308003671E0,5.400000140E-2,-4.999999888E-3,2.600000054E-2,6.014150130E-2
4.317740592E0,4.500000179E-2,-8.999999613E-3,3.099999949E-2,5.538050309E-2
4.327477258E0,3.500000015E-2,-1.700000092E-2,5.900000036E-2,7.067531453E-2
4.337213940E0,4.100000113E-2,-3.000000026E-3,8.799999952E-2,9.712878054E-2
4.346950784E0,4.500000179E-2,-4.999999888E-3,8.100000024E-2,9.279547510E-2
4.356687517E0,4.999999888E-3,8.999999613E-3,8.900000155E-2,8.959352805E-2
4.366424142E0,-4.699999839E-2,-2.000000095E-3,8.200000226E-2,9.453570871E-2
4.376160986E0,-8.100000024E-2,-1.300000027E-2,5.999999866E-2,1.016366070E-1
4.385897657E0,-8.799999952E-2,-3.500000015E-2,5.200000107E-2,1.080416588E-1
4.395634501E0,-9.700000286E-2,-2.099999972E-2,1.799999923E-2,1.008662506E-1
4.405371190E0,-9.899999946E-2,-9.999999776E-3,-2.000000095E-3,9.952386593E-2
4.415108034E0,-8.799999952E-2,-1.200000010E-2,-9.999999776E-3,8.937561141E-2
4.424844729E0,-7.000000030E-2,-1.099999994E-2,-2.099999972E-2,7.390534506E-2
4.434581349E0,-3.999999911E-2,-1.000000047E-3,-4.300000146E-2,5.873670108E-2
4.444318172E0,-3.200000152E-2,1.899999939E-2,-2.600000054E-2,4.539823897E-2
4.454054867E0,-3.599999845E-2,3.099999949E-2,-1.899999939E-2,5.116639360E-2
4.463791721E0,-2.500000037E-2,3.000000026E-3,1.600000076E-2,2.983286850E-2
4.473528338E0,0.000000000E0,1.499999966E-2,8.500000089E-2,8.631338333E-2
4.483265052E0,-4.000000190E-3,3.000000026E-3,1.620000005E-1,1.620771426E-1
4.493001899E0,0.000000000E0,-7.000000216E-3,2.800000012E-1,2.800874875E-1
4.502738607E0,3.400000185E-2,-1.899999939E-2,2.829999924E-1,2.856676317E-1
4.512475451E0,5.700000003E-2,1.000000047E-3,1.860000044E-1,1.945404884E-1
4.522212165E0,2.899999917E-2,1.799999923E-2,9.600000083E-2,1.018871929E-1
4.531948781E0,-4.000000190E-3,2.700000070E-2,-2.700000070E-2,3.839270865E-2
4.541685624E0,7.000000216E-3,1.200000010E-2,-1.270000041E-1,1.277575870E-1
4.551422318E0,4.899999872E-2,1.300000027E-2,-1.850000024E-1,1.918202303E-1
4.561159183E0,1.059999987E-1,3.700000048E-2,-1.360000074E-1,1.763547611E-1
4.570895877E0,1.439999938E-1,1.400000043E-2,-8.500000089E-2,1.678004719E-1
4.580632716E0,1.199999973E-1,2.099999972E-2,-3.700000048E-2,1.273184958E-1
4.590369395E0,3.400000185E-2,2.700000070E-2,0.000000000E0,4.341658857E-2
4.600106259E0,1.200000010E-2,2.199999988E-2,8.000000380E-3,2.630589294E-2
4.609842876E0,0.000000000E0,-2.000000095E-3,1.200000010E-2,1.216552518E-2
4.619579557E0,-4.899999872E-2,-1.600000076E-2,1.400000043E-2,5.341348061E-2
4.629316403E0,-6.800000370E-2,1.000000047E-3,4.699999839E-2,8.266801287E-2
4.639053016E0,-6.700000167E-2,-2.000000095E-3,1.089999974E-1,1.279609302E-1
4.648789706E0,-5.200000107E-2,-2.099999972E-2,1.340000033E-1,1.452618360E-1
4.658526533E0,-3.999999911E-2,-2.199999988E-2,1.289999932E-1,1.368393151E-1
4.668263228E0,-1.400000043E-2,-2.400000021E-2,1.230000034E-1,1.260991707E-1
4.678000072E0,2.300000004E-2,-6.000000052E-3,1.070000008E-1,1.096083946E-1
4.687736766E0,8.000000380E-3,-7.000000216E-3,3.700000048E-2,3.849675369E-2
4.697473614E0,1.899999939E-2,9.999999776E-3,-2.099999972E-2,3.003331418E-2
4.707210232E0,3.200000152E-2,2.800000086E-2,-7.400000095E-2,8.534635485E-2
4.716946913E0,2.700000070E-2,3.099999949E-2,-1.000000015E-1,1.081203048E-1
4.726683773E0,2.400000021E-2,5.000000075E-2,-7.699999958E-2,9.489467857E-2
4.736420468E0,2.700000070E-2,4.699999839E-2,-5.099999905E-2,7.442445693E-2
4.746157083E0,1.899999939E-2,3.400000185E-2,-8.999999613E-3,3.997499338E-2
4.755893999E0,2.199999988E-2,9.999999776E-3,2.099999972E-2,3.201562085E-2
4.765630831E0,1.999999955E-2,4.999999888E-3,2.400000021E-2,3.163858390E-2
4.775367449E0,3.799999878E-2,1.200000010E-2,2.600000054E-2,4.758150836E-2
4.785104126E0,2.400000021E-2,1.499999966E-2,2.400000021E-2,3.710795076E-2
4.794840970E0,-2.199999988E-2,2.700000070E-2,6.700000167E-2,7.551159021E-2
4.804577656E0,-3.000000026E-3,3.500000015E-2,8.299999684E-2,9.012768435E-2
4.814314271E0,8.000000380E-3,1.000000047E-3,7.100000232E-2,7.145628269E-2
4.824051115E0,1.099999994E-2,1.700000092E-2,7.400000095E-2,7.672027223E-2
4.833787810E0,4.000000190E-3,1.600000076E-2,5.799999833E-2,6.029925234E-2
4.843524649E0,-6.000000052E-3,1.600000076E-2,1.799999923E-2,2.481934723E-2
4.853261343E0,0.000000000E0,8.000000380E-3,-2.600000054E-2,2.720294164E-2
4.862998158E0,-2.000000095E-3,4.999999888E-3,-5.000000075E-2,5.028916458E-2
4.872734853E0,-3.299999982E-2,-1.899999939E-2,-5.700000003E-2,6.854925214E-2
4.882471468E0,-4.399999976E-2,-1.899999939E-2,-4.600000009E-2,6.643041445E-2
4.892208312E0,-4.899999872E-2,-1.899999939E-2,-2.700000070E-2,5.908468405E-2
4.901944997E0,-5.700000003E-2,-1.899999939E-2,-7.000000216E-3,6.048966840E-2
4.911681856E0,-5.400000140E-2,-2.099999972E-2,2.500000037E-2,6.310309151E-2
4.921418473E0,-1.499999966E-2,-4.999999888E-3,5.299999937E-2,5.530822654E-2
4.931155177E0,-1.600000076E-2,1.200000010E-2,9.600000083E-2,9.806120633E-2
4.940892029E0,-1.499999966E-2,4.999999888E-3,1.140000001E-1,1.150912681E-1
4.950628723E0,-2.400000021E-2,2.000000095E-3,9.499999881E-2,9.800510081E-2
4.960365572E0,-1.099999994E-2,-8.000000380E-3,4.300000146E-2,4.509989058E-2
4.970102266E0,1.600000076E-2,1.899999939E-2,-4.000000190E-3,2.515949130E-2
4.979839120E0,9.999999776E-3,4.199999943E-2,-2.899999917E-2,5.200961353E-2
4.989575737E0,3.500000015E-2,3.200000152E-2,-1.899999939E-2,5.108815992E-2
4.999312457E0,3.400000185E-2,2.800000086E-2,1.400000043E-2,4.621688205E-2
5.009049303E0,3.400000185E-2,-6.000000052E-3,5.299999937E-2,6.325345888E-2
5.018785984E0,1.300000027E-2,-2.300000004E-2,8.799999952E-2,9.188035658E-2
5.028522828E0,6.000000052E-3,-6.199999899E-2,8.600000292E-2,1.061885134E-1
5.038259512E0,1.799999923E-2,-5.000000075E-2,5.400000140E-2,7.576278901E-2
5.047996128E0,1.300000027E-2,-3.900000080E-2,-7.000000216E-3,4.170131980E-2
5.057732977E0,-1.899999939E-2,-2.600000054E-2,-5.400000140E-2,6.287288888E-2
5.067469685E0,-1.099999994E-2,0.000000000E0,-6.899999827E-2,6.987130856E-2
5.077206529E0,-2.099999972E-2,1.999999955E-2,-5.799999833E-2,6.484596963E-2
5.086943142E0,-8.000000380E-3,2.800000086E-2,-1.799999923E-2,3.423448593E-2
5.096679832E0,-1.099999994E-2,2.500000037E-2,2.500000037E-2,3.702701765E-2
5.106416674E0,-8.000000380E-3,1.700000092E-2,7.000000030E-2,7.247758329E-2
5.116153369E0,-9.999999776E-3,-1.499999966E-2,1.049999967E-1,1.065363755E-1
5.125890232E0,-1.099999994E-2,-3.999999911E-2,1.260000020E-1,1.326536861E-1
5.135626926E0,4.999999888E-3,-3.900000080E-2,1.190000027E-1,1.253275736E-1
5.145363537E0,1.000000047E-3,-4.800000042E-2,1.180000007E-1,1.273930933E-1
5.155100381E0,-2.400000021E-2,-1.600000076E-2,9.600000083E-2,1.002397137E-1
5.164837056E0,-2.899999917E-2,-1.200000010E-2,9.300000221E-2,9.815294374E-2
5.174573900E0,-6.000000052E-3,-1.099999994E-2,4.399999976E-2,4.574931670E-2
5.184310580E0,3.099999949E-2,-4.999999888E-3,6.000000052E-3,3.196873423E-2
5.194047195E0,3.500000015E-2,4.999999888E-3,-3.999999911E-2,5.338539068E-2
5.203784029E0,5.700000003E-2,1.899999939E-2,-7.500000298E-2,9.609890960E-2
5.213520723E0,3.700000048E-2,3.099999949E-2,-1.030000001E-1,1.137497254E-1
5.223257588E0,4.399999976E-2,2.400000021E-2,-1.169999987E-1,1.272831477E-1
5.232994262E0,2.999999933E-2,2.899999917E-2,-8.100000024E-2,9.111531128E-2
5.242731097E0,1.600000076E-2,4.500000179E-2,-3.299999982E-2,5.805170259E-2
5.252467791E0,2.000000095E-3,2.300000004E-2,3.200000152E-2,3.945884058E-2
5.262204387E0,-1.499999966E-2,6.000000052E-3,7.900000364E-2,8.063498351E-2
5.271941231E0,-1.799999923E-2,6.000000052E-3,1.449999958E-1,1.462361062E-1
5.281677891E0,-3.200000152E-2,-1.600000076E-2,1.969999969E-1,2.002223736E-1
5.291414736E0,-2.800000086E-2,-3.799999878E-2,1.889999956E-1,1.948050263E-1
5.301151444E0,-3.099999949E-2,-4.500000179E-2,1.550000012E-1,1.643502373E-1
5.310888059E0,-2.300000004E-2,-2.999999933E-2,1.159999967E-1,1.220040950E-1
5.320624904E0,-2.600000054E-2,-1.999999955E-2,1.600000076E-2,3.649657565E-2
5.330361598E0,-1.499999966E-2,-1.400000043E-2,-5.700000003E-2,6.058052497E-2
5.340098432E0,2.000000095E-3,1.600000076E-2,-1.180000007E-1,1.190966003E-1
5.349835126E0,1.000000047E-3,2.700000070E-2,-1.529999971E-1,1.553673040E-1
5.359571747E0,4.999999888E-3,4.899999872E-2,-1.379999965E-1,1.465264444E-1
5.369308591E0,3.400000185E-2,4.600000009E-2,-1.040000021E-1,1.186928834E-1
5.379045295E0,3.900000080E-2,9.999999776E-3,-4.199999943E-2,5.818075292E-2
5.388782148E0,8.999999613E-3,-1.899999939E-2,1.600000076E-2,2.641968952E-2
5.398518838E0,2.000000095E-3,-1.600000076E-2,1.080000028E-1,1.091970724E-1
5.408255682E0,-9.999999776E-3,-1.799999923E-2,1.550000012E-1,1.563617611E-1
5.417992391E0,-8.999999613E-3,-1.200000010E-2,1.809999943E-1,1.816204777E-1
5.427729007E0,1.200000010E-2,1.000000047E-3,1.720000058E-1,1.724210022E-1
5.437465875E0,8.999999613E-3,1.999999955E-2,1.340000033E-1,1.357829182E-1
5.447202569E0,9.999999776E-3,4.699999839E-2,7.999999821E-2,9.332202076E-2
5.456939427E0,3.799999878E-2,5.999999866E-2,1.999999955E-2,7.378346514E-2
5.466676108E0,4.300000146E-2,6.300000101E-2,-3.299999982E-2,8.310836445E-2
5.476412723E0,5.400000140E-2,5.499999970E-2,-7.800000161E-2,1.096585627E-1
5.486149552E0,4.199999943E-2,5.200000107E-2,-7.500000298E-2,1.004639264E-1
5.495886247E0,2.400000021E-2,3.799999878E-2,-7.299999893E-2,8.572630728E-2
5.505623120E0,1.000000047E-3,1.700000092E-2,-5.499999970E-2,5.757603667E-2
5.515359814E0,4.999999888E-3,8.000000380E-3,-3.799999878E-2,3.915354278E-2
5.525096420E0,-7.000000216E-3,-6.000000052E-3,-1.300000027E-2,1.593737778E-2
5.534833264E0,-2.300000004E-2,-7.000000216E-3,8.999999613E-3,2.567099527E-2
5.544569958E0,-1.499999966E-2,-8.999999613E-3,1.400000043E-2,2.240535639E-2
5.554306802E0,-2.999999933E-2,-1.400000043E-2,3.500000015E-2,4.817675770E-2
5.564043488E0,-2.099999972E-2,-2.400000021E-2,5.799999833E-2,6.618912150E-2
5.573780332E0,-2.300000004E-2,-2.500000037E-2,7.199999690E-2,7.961155428E-2
5.583516949E0,-8.000000380E-3,-8.000000380E-3,6.199999899E-2,6.302380413E-2
5.593253639E0,4.999999888E-3,-2.000000095E-3,5.999999866E-2,6.024118059E-2
5.602990490E0,-1.700000092E-2,1.899999939E-2,6.700000167E-2,7.168682049E-2
5.612727184E0,-3.599999845E-2,3.200000152E-2,7.500000298E-2,8.913473191E-2
5.622464033E0,1.000000047E-3,1.999999955E-2,8.299999684E-2,8.538149365E-2
5.632200727E0,7.000000216E-3,1.499999966E-2,9.700000286E-2,9.840223853E-2
5.641937348E0,7.000000216E-3,7.000000216E-3,8.100000024E-2,8.160269631E-2
5.651674192E0,2.000000095E-3,8.000000380E-3,5.799999833E-2,5.858327247E-2
5.661410871E0,3.500000015E-2,1.200000010E-2,4.999999888E-3,3.733630956E-2
5.671147716E0,3.599999845E-2,2.000000095E-3,-9.999999776E-3,3.741657232E-2
5.680884391E0,4.600000009E-2,-1.000000047E-3,-2.899999917E-2,5.438749820E-2
5.690621006E0,3.799999878E-2,3.000000026E-3,-4.500000179E-2,5.897457137E-2
5.700357850E0,2.199999988E-2,-1.300000027E-2,-3.099999949E-2,4.017461848E-2
5.710094531E0,-8.999999613E-3,-7.000000216E-3,3.000000026E-3,1.178982596E-2
5.719831384E0,-2.700000070E-2,-2.300000004E-2,5.099999905E-2,6.212084950E-2
5.729568078E0,-3.900000080E-2,-1.799999923E-2,1.000000015E-1,1.088347386E-1
5.739304933E0,-4.800000042E-2,-2.800000086E-2,1.289999932E-1,1.404599528E-1
5.749041550E0,-2.800000086E-2,-1.999999955E-2,1.299999952E-1,1.344767593E-1
5.758778235E0,-2.500000037E-2,-3.000000026E-3,1.019999981E-1,1.050618848E-1
5.768515081E0,1.000000047E-3,1.300000027E-2,5.799999833E-2,5.944745422E-2
5.778251762E0,3.500000015E-2,9.999999776E-3,8.000000380E-3,3.726929047E-2
5.787988377E0,-4.000000190E-3,4.999999888E-3,8.000000380E-3,1.024695108E-2
5.797725216E0,0.000000000E0,2.999999933E-2,4.000000190E-3,3.026549126E-2
5.807461911E0,-1.000000047E-3,1.099999994E-2,-2.000000095E-3,1.122497212E-2
5.817198769E0,1.999999955E-2,0.000000000E0,-4.000000190E-3,2.039607765E-2
5.826935468E0,2.400000021E-2,1.200000010E-2,-2.800000086E-2,3.878143964E-2
5.836672312E0,3.299999982E-2,3.900000080E-2,-6.899999827E-2,8.585452704E-2
5.846408930E0,2.500000037E-2,4.600000009E-2,-8.100000024E-2,9.644687691E-2
5.856145620E0,2.800000086E-2,5.000000075E-2,-8.600000292E-2,1.033440885E-1
5.865882485E0,8.000000380E-3,3.900000080E-2,-7.000000030E-2,8.052949839E-2
5.875619180E0,-2.800000086E-2,2.999999933E-2,-8.000000380E-3,4.180909009E-2
5.885355800E0,-4.199999943E-2,-9.999999776E-3,3.999999911E-2,5.885575483E-2
5.895092721E0,-5.499999970E-2,-1.300000027E-2,8.100000024E-2,9.876740359E-2
5.904829557E0,-6.899999827E-2,-1.099999994E-2,9.000000358E-2,1.139385817E-1
5.914566175E0,-4.899999872E-2,-2.500000037E-2,6.800000370E-2,8.746428068E-2
5.924302862E0,-2.400000021E-2,-2.800000086E-2,2.999999933E-2,4.753945749E-2
5.934039706E0,3.500000015E-2,-2.400000021E-2,-3.000000026E-3,4.254409501E-2
5.943776358E0,6.100000069E-2,-2.999999933E-2,-2.899999917E-2,7.390534483E-2
5.953513048E0,7.100000232E-2,-2.800000086E-2,-3.599999845E-2,8.438601938E-2
5.963249889E0,6.599999964E-2,-1.200000010E-2,-3.000000026E-3,6.714908753E-2
5.972986583E0,3.299999982E-2,-2.300000004E-2,1.499999966E-2,4.293017564E-2
5.982723428E0,2.899999917E-2,-1.899999939E-2,5.000000075E-2,6.084406300E-2
5.992460122E0,1.000000047E-3,4.999999888E-3,7.900000364E-2,7.916438955E-2
6.002196737E0,-1.099999994E-2,2.600000054E-2,1.089999974E-1,1.125966228E-1
6.011933582E0,3.000000026E-3,1.700000092E-2,9.899999946E-2,1.004937805E-1
6.021670276E0,5.400000140E-2,1.899999939E-2,7.900000364E-2,9.756024140E-2
6.031407115E0,4.500000179E-2,2.999999933E-2,3.099999949E-2,6.233779022E-2
6.041143823E0,1.700000092E-2,3.599999845E-2,-1.000000047E-3,3.982461450E-2
6.050880439E0,-4.999999888E-3,1.899999939E-2,-1.000000047E-3,1.967231496E-2
6.060617346E0,-8.000000380E-3,2.400000021E-2,7.000000216E-3,2.624880986E-2
6.070353963E0,-8.999999613E-3,-1.000000047E-3,2.099999972E-2,2.286919284E-2
6.080090788E0,-1.300000027E-2,-1.000000047E-3,2.700000070E-2,2.998332945E-2
6.089827483E0,-1.499999966E-2,1.799999923E-2,6.300000101E-2,6.721607017E-2
6.099564075E0,-9.999999776E-3,1.499999966E-2,9.499999881E-2,9.669539678E-2
6.109300919E0,4.100000113E-2,2.300000004E-2,4.500000179E-2,6.507687958E-2
6.119037614E0,6.100000069E-2,2.300000004E-2,-1.200000010E-2,6.628725434E-2
6.128774458E0,3.200000152E-2,3.799999878E-2,-3.099999949E-2,5.855766366E-2
6.138511147E0,2.000000095E-3,4.100000113E-2,-3.500000015E-2,5.394441680E-2
6.148247991E0,-2.000000095E-3,3.299999982E-2,-5.400000140E-2,6.331666558E-2
6.157984671E0,3.000000026E-3,1.700000092E-2,-4.800000042E-2,5.100980368E-2
6.167721286E0,-1.499999966E-2,1.099999994E-2,0.000000000E0,1.860107493E-2
6.177458097E0,-2.199999988E-2,-1.400000043E-2,5.799999833E-2,6.359245091E-2
6.187194801E0,-4.600000009E-2,-3.400000185E-2,1.220000014E-1,1.347442038E-1
6.196931645E0,-2.999999933E-2,-4.800000042E-2,1.400000006E-1,1.510099340E-1
6.206668325E0,-1.300000027E-2,-4.800000042E-2,1.449999958E-1,1.532905700E-1
6.216404941E0,-4.000000190E-3,-2.600000054E-2,8.600000292E-2,8.993331158E-2
6.226141746E0,-1.200000010E-2,-1.300000027E-2,3.599999845E-2,4.011234097E-2
6.235878440E0,-7.000000216E-3,1.899999939E-2,-2.600000054E-2,3.295451422E-2
6.245615332E0,1.200000010E-2,1.999999955E-2,-5.400000140E-2,5.882176583E-2
6.255352027E0,3.799999878E-2,4.500000179E-2,-5.499999970E-2,8.058535869E-2
6.265088647E0,5.000000075E-2,5.200000107E-2,-3.799999878E-2,8.153526901E-2
6.274825491E0,3.500000015E-2,2.899999917E-2,-2.999999933E-2,5.446099450E-2
6.284562180E0,2.300000004E-2,1.799999923E-2,4.000000190E-3,2.947880553E-2
6.294299025E0,-1.600000076E-2,-1.099999994E-2,3.900000080E-2,4.356604281E-2
6.304035724E0,-1.600000076E-2,-2.899999917E-2,7.500000298E-2,8.198780655E-2
6.313772568E0,4.999999888E-3,-3.400000185E-2,8.100000024E-2,8.798863656E-2
6.323509210E0,-3.000000026E-3,-2.700000070E-2,7.100000232E-2,7.601973670E-2
6.333245900E0,-1.200000010E-2,-4.000000190E-3,4.399999976E-2,4.578209238E-2
6.342982746E0,6.000000052E-3,-6.000000052E-3,4.399999976E-2,4.481071278E-2
6.352719454E0,4.100000113E-2,0.000000000E0,2.999999933E-2,5.080354370E-2
6.362456098E0,2.899999917E-2,2.800000086E-2,6.000000052E-3,4.075536775E-2
6.372193019E0,4.000000190E-3,2.800000086E-2,-1.300000027E-2,3.112876575E-2
6.381929660E0,-1.600000076E-2,2.800000086E-2,-6.000000052E-3,3.280244005E-2
6.391666505E0,-2.099999972E-2,1.799999923E-2,8.999999613E-3,2.908607834E-2
6.401403185E0,-2.999999933E-2,-1.799999923E-2,3.700000048E-2,5.092150790E-2
6.411140029E0,-1.899999939E-2,-1.600000076E-2,4.600000009E-2,5.227810258E-2
6.420876646E0,2.000000095E-3,-3.500000015E-2,4.899999872E-2,6.024948037E-2
6.430613337E0,8.000000380E-3,-3.700000048E-2,5.000000075E-2,6.271363580E-2
6.440350187E0,2.700000070E-2,-4.399999976E-2,2.600000054E-2,5.780138445E-2
6.450086881E0,4.999999888E-3,-1.799999923E-2,-9.999999776E-3,2.118961931E-2
6.459823769E0,-2.999999933E-2,3.000000026E-3,-1.499999966E-2,3.367491574E-2
6.469560464E0,-2.400000021E-2,1.099999994E-2,0.000000000E0,2.640075773E-2
6.479297093E0,8.999999613E-3,3.000000026E-3,3.200000152E-2,3.337663989E-2
6.489033937E0,1.700000092E-2,1.400000043E-2,5.200000107E-2,5.647123299E-2
6.498770632E0,1.899999939E-2,2.899999917E-2,5.700000003E-2,6.671581471E-2
6.508507481E0,3.200000152E-2,4.600000009E-2,3.400000185E-2,6.554388020E-2
6.518244098E0,8.000000380E-3,5.099999905E-2,3.400000185E-2,6.181423812E-2
6.527980789E0,-2.000000095E-3,3.099999949E-2,3.999999911E-2,5.064582804E-2
6.537717635E0,-1.300000027E-2,3.000000026E-3,4.500000179E-2,4.693612860E-2
6.547454324E0,-4.999999888E-3,-8.000000380E-3,6.100000069E-2,6.172519817E-2
6.557191168E0,-2.099999972E-2,-2.500000037E-2,7.999999821E-2,8.640601669E-2
6.566927858E0,-1.099999994E-2,-1.600000076E-2,8.299999684E-2,8.524083234E-2
6.576664473E0,2.199999988E-2,-2.899999917E-2,6.400000304E-2,7.362744281E-2
6.586401302E0,2.500000037E-2,-4.500000179E-2,6.000000052E-3,5.182663582E-2
6.596137997E0,6.000000052E-3,-2.899999917E-2,-4.100000113E-2,5.057667491E-2
6.605874846E0,-1.200000010E-2,-1.099999994E-2,-5.999999866E-2,6.216912288E-2
6.615611540E0,0.000000000E0,-1.799999923E-2,-5.299999937E-2,5.597320703E-2
6.625348374E0,-2.000000095E-3,-7.000000216E-3,-4.500000179E-2,4.558508708E-2
6.635084992E0,-4.999999888E-3,-1.099999994E-2,-3.099999949E-2,3.327160901E-2
6.644821663E0,-4.999999888E-3,8.999999613E-3,-1.000000047E-3,1.034408005E-2
6.654558509E0,1.300000027E-2,1.700000092E-2,3.900000080E-2,4.448595398E-2
6.664295189E0,1.799999923E-2,2.099999972E-2,5.499999970E-2,6.156297530E-2
6.674031790E0,2.300000004E-2,1.499999966E-2,6.400000304E-2,6.964194412E-2
6.683768634E0,3.200000152E-2,1.300000027E-2,7.699999958E-2,8.439194298E-2
6.693505358E0,3.400000185E-2,0.000000000E0,8.399999887E-2,9.062008572E-2
6.703242203E0,3.200000152E-2,1.300000027E-2,6.700000167E-2,7.537904436E-2
6.712978897E0,4.600000009E-2,6.000000052E-3,5.799999833E-2,7.426977727E-2
6.722715736E0,4.399999976E-2,-3.000000026E-3,4.399999976E-2,6.229767217E-2
6.732452353E0,2.300000004E-2,2.400000021E-2,1.300000027E-2,3.569313686E-2
6.742189044E0,-6.000000052E-3,1.499999966E-2,0.000000000E0,1.615549413E-2
6.751925890E0,2.099999972E-2,4.999999888E-3,8.999999613E-3,2.338803070E-2
6.761662560E0,2.800000086E-2,8.000000380E-3,8.000000380E-3,3.019933874E-2
6.771399405E0,1.600000076E-2,1.499999966E-2,2.700000070E-2,3.478505501E-2
6.781136099E0,1.700000092E-2,-2.000000095E-3,9.999999776E-3,1.982422829E-2
6.790872714E0,7.000000216E-3,-1.400000043E-2,9.999999776E-3,1.857417591E-2
6.800609572E0,-8.999999613E-3,-3.000000026E-3,-1.099999994E-2,1.452583877E-2
6.810346267E0,-2.500000037E-2,1.000000047E-3,-8.999999613E-3,2.658947182E-2
6.820082849E0,-3.500000015E-2,9.999999776E-3,8.999999613E-3,3.749666650E-2
6.829819755E0,-5.099999905E-2,-1.899999939E-2,4.699999839E-2,7.190966366E-2
6.839556373E0,-6.700000167E-2,3.000000026E-3,3.999999911E-2,7.808969300E-2
6.849293232E0,-7.000000030E-2,-3.000000026E-3,3.500000015E-2,7.831985733E-2
6.859029926E0,-3.400000185E-2,-1.099999994E-2,3.299999982E-2,4.864154718E-2
6.868766779E0,-1.099999994E-2,-8.000000380E-3,4.699999839E-2,4.892851779E-2
6.878503474E0,2.300000004E-2,-4.999999888E-3,4.699999839E-2,5.256424497E-2
6.888240056E0,5.099999905E-2,-7.000000216E-3,5.900000036E-2,7.830070209E-2
6.897976895E0,5.499999970E-2,-7.000000216E-3,6.199999899E-2,8.317451439E-2
6.907713590E0,5.499999970E-2,6.000000052E-3,5.200000107E-2,7.592759761E-2
6.917450439E0,2.800000086E-2,6.000000052E-3,3.799999878E-2,4.758150855E-2
6.927187133E0,1.600000076E-2,-9.999999776E-3,1.400000043E-2,2.349468093E-2
6.936923976E0,-1.099999994E-2,-1.200000010E-2,-7.000000216E-3,1.772004527E-2
6.946660594E0,-1.600000076E-2,9.999999776E-3,4.000000190E-3,1.928730208E-2
6.956397299E0,-1.099999994E-2,3.000000026E-3,9.999999776E-3,1.516575070E-2
6.966134145E0,-1.799999923E-2,-1.300000027E-2,1.999999955E-2,2.988310495E-2
6.975870728E0,9.999999776E-3,-2.500000037E-2,4.800000042E-2,5.503635212E-2
6.985607649E0,1.700000092E-2,-8.000000380E-3,3.299999982E-2,3.797367543E-2
6.995344281E0,1.200000010E-2,1.200000010E-2,3.000000026E-3,1.723368809E-2
7.005080973E0,2.000000095E-3,1.400000043E-2,-9.999999776E-3,1.732050831E-2
7.014817827E0,7.000000216E-3,1.899999939E-2,-8.999999613E-3,2.215851919E-2
7.024554521E0,-8.000000380E-3,2.500000037E-2,7.000000216E-3,2.716615592E-2
7.034291365E0,-2.400000021E-2,1.300000027E-2,4.800000042E-2,5.521775129E-2
7.044027983E0,-3.599999845E-2,4.000000190E-3,8.100000024E-2,8.872992690E-2
7.053764683E0,-2.899999917E-2,-2.000000095E-3,9.700000286E-2,1.012620388E-1
7.063501529E0,-2.999999933E-2,0.000000000E0,1.019999981E-1,1.063202689E-1
7.073238228E0,-1.600000076E-2,-2.000000095E-3,9.300000221E-2,9.438750148E-2
7.082975073E0,-8.999999613E-3,-8.000000380E-3,4.800000042E-2,4.948737252E-2
7.092711747E0,1.600000076E-2,-1.400000043E-2,-4.000000190E-3,2.163330853E-2
7.102448362E0,4.699999839E-2,-8.000000380E-3,-4.699999839E-2,6.694773860E-2
7.112185225E0,3.999999911E-2,8.000000380E-3,-6.100000069E-2,7.338255936E-2
7.121921920E0,6.000000052E-3,1.099999994E-2,-4.899999872E-2,5.057667322E-2
7.131658798E0,-9.999999776E-3,1.099999994E-2,-3.500000015E-2,3.802630674E-2
7.141395492E0,-9.999999776E-3,2.400000021E-2,4.000000190E-3,2.630589301E-2
7.151132331E0,6.000000052E-3,9.999999776E-3,5.999999866E-2,6.112282581E-2
7.160868949E0,2.500000037E-2,3.200000152E-2,7.900000364E-2,8.882567585E-2
7.170605625E0,3.500000015E-2,2.500000037E-2,7.000000030E-2,8.215838406E-2
7.180342471E0,2.500000037E-2,3.700000048E-2,4.399999976E-2,6.268971234E-2
7.190079175E0,1.700000092E-2,2.600000054E-2,3.799999878E-2,4.908156443E-2
7.199816019E0,1.000000047E-3,1.600000076E-2,3.999999911E-2,4.309292231E-2
7.209552641E0,-1.000000047E-3,2.000000095E-3,3.700000048E-2,3.706750647E-2
7.219289332E0,-8.000000380E-3,-8.999999613E-3,6.100000069E-2,6.217716689E-2
7.229026183E0,-4.000000190E-3,-4.999999888E-3,7.400000095E-2,7.427651137E-2
7.238762877E0,-1.099999994E-2,-2.500000037E-2,7.400000095E-2,7.887965618E-2
7.248499740E0,-4.999999888E-3,-2.300000004E-2,4.600000009E-2,5.167204282E-2
7.258236358E0,-3.000000026E-3,-2.600000054E-2,1.999999955E-2,3.293933834E-2
7.267973053E0,-4.999999888E-3,-1.999999955E-2,8.000000380E-3,2.211334410E-2
7.277709899E0,-1.099999994E-2,-1.099999994E-2,-1.300000027E-2,2.027313504E-2
7.287446546E0,-3.400000185E-2,-8.000000380E-3,-1.600000076E-2,3.841874746E-2
7.297183472E0,-1.700000092E-2,7.000000216E-3,-3.500000015E-2,3.953479537E-2
7.306920166E0,-6.000000052E-3,2.400000021E-2,-3.900000080E-2,4.618441375E-2
7.316657010E0,-2.800000086E-2,4.800000042E-2,-4.600000009E-2,7.213875586E-2
7.326393628E0,-8.000000380E-3,4.600000009E-2,-2.800000086E-2,5.444263093E-2
7.336130323E0,-1.000000047E-3,4.500000179E-2,2.099999972E-2,4.966890525E-2
7.345867140E0,8.999999613E-3,3.700000048E-2,4.199999943E-2,5.669215096E-2
7.355603758E0,1.099999994E-2,1.899999939E-2,4.600000009E-2,5.097057959E-2
7.365340443E0,3.099999949E-2,7.000000216E-3,5.900000036E-2,6.701492381E-2
7.375077289E0,2.400000021E-2,2.199999988E-2,6.599999964E-2,7.359347768E-2
7.384813973E0,3.099999949E-2,1.799999923E-2,6.599999964E-2,7.510659021E-2
7.394550818E0,9.999999776E-3,1.499999966E-2,4.300000146E-2,4.662617410E-2
7.404287498E0,9.999999776E-3,1.099999994E-2,5.999999866E-2,6.181423649E-2
7.414024113E0,7.000000216E-3,8.000000380E-3,7.599999756E-2,7.673981781E-2
7.423760968E0,1.400000043E-2,9.999999776E-3,6.499999762E-2,6.723837965E-2
7.433497662E0,-7.000000216E-3,-1.000000047E-3,2.700000070E-2,2.791057221E-2
7.443234525E0,1.400000043E-2,0.000000000E0,-1.300000027E-2,1.910497367E-2
7.452971219E0,2.999999933E-2,1.300000027E-2,-6.100000069E-2,6.920982626E-2
7.462708064E0,0.000000000E0,1.099999994E-2,-7.800000161E-2,7.877182396E-2
7.472444772E0,-1.300000027E-2,7.000000216E-3,-7.299999893E-2,7.447818374E-2
7.482181387E0,-2.199999988E-2,-2.000000095E-3,-2.700000070E-2,3.488552756E-2
7.491918221E0,-3.999999911E-2,-4.999999888E-3,3.400000185E-2,5.273518800E-2
7.501654916E0,-5.499999970E-2,-1.300000027E-2,8.299999684E-2,1.004141397E-1
7.511391531E0,-7.100000232E-2,-1.999999955E-2,1.110000014E-1,1.332741559E-1
7.521128375E0,-7.000000030E-2,-2.600000054E-2,1.099999994E-1,1.329511186E-1
7.530865061E0,-6.300000101E-2,-2.800000086E-2,8.900000155E-2,1.125788633E-1
7.540601905E0,-4.399999976E-2,-1.099999994E-2,6.499999762E-2,7.925906679E-2
7.550338594E0,-2.600000054E-2,0.000000000E0,3.700000048E-2,4.522167692E-2
7.560075438E0,-6.000000052E-3,8.000000380E-3,1.700000092E-2,1.972308389E-2
7.569812142E0,4.000000190E-3,2.400000021E-2,-9.999999776E-3,2.630589301E-2
7.579548757E0,1.000000047E-3,2.099999972E-2,-8.999999613E-3,2.286919284E-2
7.589285582E0,8.000000380E-3,1.799999923E-2,0.000000000E0,1.969771505E-2
7.599022277E0,1.499999966E-2,4.000000190E-3,-3.000000026E-3,1.581138804E-2
7.608759126E0,1.999999955E-2,2.000000095E-3,-1.999999955E-2,2.835489313E-2
7.618495820E0,0.000000000E0,-1.000000047E-3,-1.200000010E-2,1.204159469E-2
7.628232659E0,-1.799999923E-2,4.999999888E-3,1.799999923E-2,2.594224245E-2
7.637969277E0,-6.000000052E-3,-4.000000190E-3,3.799999878E-2,3.867815804E-2
7.647705982E0,-3.000000026E-3,-2.099999972E-2,5.000000075E-2,5.431390303E-2
7.657442828E0,-2.000000095E-3,-1.000000047E-3,4.100000113E-2,4.106093147E-2
7.667179518E0,-8.999999613E-3,3.000000026E-3,2.899999917E-2,3.051229170E-2
7.676916133E0,-2.000000095E-3,4.999999888E-3,3.400000185E-2,3.442383077E-2
7.686652977E0,1.799999923E-2,2.199999988E-2,7.500000298E-2,8.020598739E-2
7.696389671E0,3.500000015E-2,2.000000095E-3,5.099999905E-2,6.188699309E-2
7.706126511E0,6.000000052E-3,8.999999613E-3,2.600000054E-2,2.816025606E-2
7.715863205E0,-1.899999939E-2,8.000000380E-3,-4.000000190E-3,2.099999963E-2
7.725600015E0,-3.500000015E-2,1.400000043E-2,3.000000026E-3,3.781534110E-2
7.735336633E0,-3.400000185E-2,1.600000076E-2,8.000000380E-3,3.841874746E-2
7.745073304E0,-3.599999845E-2,-1.099999994E-2,5.000000075E-2,6.258594061E-2
7.754810150E0,-2.400000021E-2,-1.000000047E-3,6.899999827E-2,7.306161627E-2
7.764546767E0,-1.700000092E-2,-1.300000027E-2,6.800000370E-2,7.128815148E-2
7.774283689E0,2.999999933E-2,-2.999999933E-2,3.400000185E-2,5.436910929E-2
7.784020364E0,4.399999976E-2,-2.600000054E-2,1.200000010E-2,5.249761908E-2
7.793757208E0,1.499999966E-2,-1.999999955E-2,-1.000000047E-3,2.501999145E-2
7.803493826E0,-8.000000380E-3,3.000000026E-3,-9.999999776E-3,1.315294651E-2
7.813230520E0,-4.000000190E-3,-1.400000043E-2,1.499999966E-2,2.090454505E-2
7.822967366E0,6.000000052E-3,-3.000000026E-3,2.899999917E-2,2.976575133E-2
7.832703979E0,1.999999955E-2,1.099999994E-2,4.100000113E-2,4.692547361E-2
7.842440670E0,3.200000152E-2,3.599999845E-2,3.500000015E-2,5.953990255E-2
7.852177501E0,3.599999845E-2,3.999999911E-2,-7.000000216E-3,5.426785255E-2
7.861914195E0,1.999999955E-2,5.400000140E-2,-4.899999872E-2,7.561084583E-2
7.871651034E0,-6.000000052E-3,5.400000140E-2,-4.399999976E-2,6.991423411E-2
7.881387729E0,-4.999999888E-3,4.100000113E-2,-8.999999613E-3,4.227292378E-2
7.891124588E0,-2.099999972E-2,6.000000052E-3,4.199999943E-2,4.733920089E-2
7.900861205E0,-4.899999872E-2,-1.499999966E-2,8.299999684E-2,9.754485809E-2
7.910597876E0,-7.999999821E-2,-2.600000054E-2,8.200000226E-2,1.174734017E-1
7.920334722E0,-6.199999899E-2,-4.300000146E-2,7.400000095E-2,1.056834904E-1
7.930071411E0,-6.000000052E-3,-4.100000113E-2,5.299999937E-2,6.727555297E-2
7.939808255E0,4.800000042E-2,-3.799999878E-2,3.200000152E-2,6.907966448E-2
7.949544950E0,7.800000161E-2,-3.099999949E-2,-8.000000380E-3,8.431488733E-2
7.959281565E0,7.500000298E-2,-1.099999994E-2,-1.700000092E-2,7.768526551E-2
7.969018400E0,7.199999690E-2,-1.799999923E-2,-1.999999955E-2,7.686351220E-2
7.978755095E0,6.499999762E-2,-1.700000092E-2,-8.000000380E-3,6.766091728E-2
7.988491953E0,4.399999976E-2,-3.500000015E-2,9.999999776E-3,5.710516601E-2
7.998228570E0,6.000000052E-3,-1.200000010E-2,4.899999872E-2,5.080354198E-2
8.007965256E0,-3.500000015E-2,9.999999776E-3,6.100000069E-2,7.103520317E-2
8.017702102E0,-6.100000069E-2,6.000000052E-3,5.999999866E-2,8.577295566E-2
8.027438815E0,-4.199999943E-2,1.000000047E-3,4.100000113E-2,5.870264087E-2
8.037175659E0,-4.699999839E-2,6.000000052E-3,1.899999939E-2,5.104899437E-2
8.046912349E0,-1.899999939E-2,1.799999923E-2,-1.000000047E-3,2.619160073E-2
8.056649193E0,-2.600000054E-2,4.100000113E-2,8.000000380E-3,4.920365969E-2
8.066385815E0,-7.000000216E-3,2.899999917E-2,3.200000152E-2,4.374928630E-2
8.076122505E0,4.999999888E-3,3.099999949E-2,4.100000113E-2,5.164300592E-2
8.085859371E0,8.000000380E-3,1.899999939E-2,5.700000003E-2,6.061352973E-2
8.095596065E0,1.400000043E-2,1.300000027E-2,8.200000226E-2,8.419620176E-2
8.105332909E0,9.999999776E-3,1.000000047E-3,9.099999815E-2,9.155326133E-2
8.115069599E0,3.500000015E-2,-4.000000190E-3,6.599999964E-2,7.481310022E-2
8.124806214E0,3.200000152E-2,-2.000000095E-3,1.999999955E-2,3.778888831E-2
8.134543058E0,1.099999994E-2,0.000000000E0,2.000000095E-3,1.118033985E-2
8.144279752E0,5.200000107E-2,-1.000000047E-3,-1.799999923E-2,5.503635238E-2
8.154016597E0,2.999999933E-2,-1.099999994E-2,-2.800000086E-2,4.248529165E-2
8.163753194E0,6.000000052E-3,-2.800000086E-2,-6.000000052E-3,2.925747853E-2
8.173489884E0,-3.299999982E-2,-2.300000004E-2,2.300000004E-2,4.633573127E-2
8.183226725E0,-4.300000146E-2,-3.400000185E-2,3.500000015E-2,6.503845218E-2
8.192963420E0,-3.700000048E-2,-3.299999982E-2,6.899999827E-2,8.496469729E-2
8.202700255E0,-3.299999982E-2,-3.400000185E-2,6.899999827E-2,8.370185109E-2
8.212436949E0,-2.600000054E-2,-1.499999966E-2,3.700000048E-2,4.764451756E-2
8.222173789E0,-3.099999949E-2,-6.000000052E-3,2.099999972E-2,3.792096989E-2
8.231910406E0,1.600000076E-2,1.999999955E-2,1.000000047E-3,2.563201136E-2
8.241647105E0,5.799999833E-2,2.199999988E-2,-2.700000070E-2,6.765352791E-2
8.251383951E0,3.900000080E-2,2.199999988E-2,-2.600000054E-2,5.177837469E-2
8.261120666E0,3.400000185E-2,3.400000185E-2,1.200000010E-2,4.955804933E-2
8.270857524E0,1.600000076E-2,2.500000037E-2,6.499999762E-2,7.145627847E-2
8.280594218E0,1.600000076E-2,1.400000043E-2,1.369999945E-1,1.386398158E-1
8.290330839E0,-2.000000095E-3,1.999999955E-2,1.439999938E-1,1.453960047E-1
8.300067683E0,-4.100000113E-2,4.600000009E-2,8.900000155E-2,1.082497131E-1
8.309804377E0,-6.599999964E-2,5.099999905E-2,5.000000075E-2,9.724710757E-2
8.319541221E0,-7.299999893E-2,2.700000070E-2,1.700000092E-2,7.966806081E-2
8.329277839E0,-7.599999756E-2,1.000000047E-3,1.400000043E-2,7.728518384E-2
8.339014529E0,-7.800000161E-2,-1.400000043E-2,3.400000185E-2,8.623224680E-2
8.348751452E0,-6.400000304E-2,-3.099999949E-2,3.299999982E-2,7.839643070E-2
8.358488070E0,-6.899999827E-2,-5.799999833E-2,2.800000086E-2,9.438749714E-2
8.368224914E0,-1.899999939E-2,-3.500000015E-2,-4.999999888E-3,4.013726431E-2
8.377961608E0,3.900000080E-2,-4.399999976E-2,-5.700000003E-2,8.189017063E-2
8.387698471E0,6.100000069E-2,-7.199999690E-2,-1.239999980E-1,1.558236155E-1
8.397435089E0,6.599999964E-2,-8.900000155E-2,-1.979999989E-1,2.268942481E-1
8.407171784E0,2.300000004E-2,-8.600000292E-2,-2.540000081E-1,2.691486664E-1
8.416908644E0,-1.300000027E-2,-9.200000018E-2,-2.829999924E-1,2.978623772E-1
8.426645339E0,-2.500000037E-2,-8.500000089E-2,-2.730000019E-1,2.870174232E-1
8.436382192E0,-2.600000054E-2,-6.599999964E-2,-2.329999954E-1,2.435590233E-1
8.446118886E0,-2.099999972E-2,-3.599999845E-2,-1.870000064E-1,1.915881058E-1
8.455855730E0,-2.300000004E-2,-1.300000027E-2,-1.340000033E-1,1.365796504E-1
8.465592344E0,-1.899999939E-2,3.900000080E-2,-6.300000101E-2,7.649183072E-2
8.475329034E0,-2.600000054E-2,7.400000095E-2,3.999999911E-2,8.804544337E-2
8.485065894E0,-2.400000021E-2,1.019999981E-1,1.560000032E-1,1.879255188E-1
8.494802588E0,-7.000000216E-3,1.439999938E-1,2.820000052E-1,3.167159629E-1
8.504539438E0,2.300000004E-2,1.679999977E-1,3.819999993E-1,4.179437746E-1
8.514276132E0,4.399999976E-2,1.899999976E-1,4.819999933E-1,5.199615300E-1
8.524012742E0,3.900000080E-2,1.860000044E-1,4.990000129E-1,5.339644319E-1
8.533749587E0,4.999999888E-3,1.809999943E-1,4.370000064E-1,4.730274871E-1
8.543486271E0,1.700000092E-2,1.459999979E-1,3.400000036E-1,3.704119353E-1
8.553223115E0,4.800000042E-2,1.030000001E-1,2.070000023E-1,2.361397912E-1
8.562959795E0,9.399999678E-2,4.100000113E-2,5.499999970E-2,1.163700969E-1
8.572696411E0,1.490000039E-1,-1.000000047E-3,-6.199999899E-2,1.613877351E-1
8.582433250E0,1.819999963E-1,-3.799999878E-2,-1.400000006E-1,2.327401958E-1
8.592169929E0,1.819999963E-1,-7.800000161E-2,-1.509999931E-1,2.490160573E-1
8.601906788E0,1.469999999E-1,-1.110000014E-1,-1.239999980E-1,2.220495435E-1
8.611643483E0,1.049999967E-1,-1.400000006E-1,-1.260000020E-1,2.156409052E-1
8.621380351E0,5.000000075E-2,-1.659999937E-1,-5.999999866E-2,1.834557108E-1
8.631116968E0,-4.199999943E-2,-1.490000039E-1,-1.899999939E-2,1.559679490E-1
8.640853659E0,-8.799999952E-2,-1.099999994E-1,2.199999988E-2,1.425762946E-1
8.650590505E0,-1.260000020E-1,-1.169999987E-1,6.700000167E-2,1.845372603E-1
8.660327184E0,-1.529999971E-1,-7.900000364E-2,9.200000018E-2,1.952280711E-1
8.670064028E0,-1.560000032E-1,-5.499999970E-2,1.230000034E-1,2.061310307E-1
8.679800704E0,-1.000000015E-1,-3.700000048E-2,1.230000034E-1,1.627820665E-1
8.689537319E0,-6.800000370E-2,-3.000000026E-3,6.599999964E-2,9.481033939E-2
8.699274158E0,-3.999999911E-2,2.300000004E-2,-4.000000190E-3,4.631414397E-2
8.709010853E0,-4.999999888E-3,3.299999982E-2,-6.300000101E-2,7.129516193E-2
8.718747692E0,4.500000179E-2,4.500000179E-2,-8.600000292E-2,1.069859842E-1
8.728484386E0,9.200000018E-2,3.500000015E-2,-7.100000232E-2,1.213672129E-1
8.738221230E0,8.500000089E-2,3.599999845E-2,-3.500000015E-2,9.872183168E-2
8.747957872E0,6.499999762E-2,5.099999905E-2,2.600000054E-2,8.661408442E-2
8.757694562E0,3.599999845E-2,2.700000070E-2,7.299999893E-2,8.575546495E-2
8.767431403E0,1.200000010E-2,1.499999966E-2,9.399999678E-2,9.594268803E-2
8.777168098E0,-2.899999917E-2,-4.999999888E-3,8.600000292E-2,9.089554694E-2
8.786904947E0,-6.599999964E-2,8.000000380E-3,6.700000167E-2,9.438750014E-2
8.796641641E0,-5.799999833E-2,2.099999972E-2,5.499999970E-2,8.264381260E-2
8.806378485E0,-2.500000037E-2,2.199999988E-2,2.700000070E-2,4.287190282E-2
8.816115103E0,-2.000000095E-3,6.000000052E-3,-3.000000026E-3,7.000000083E-3
8.825851798E0,1.600000076E-2,-1.600000076E-2,-1.999999955E-2,3.019933825E-2
8.835588644E0,1.400000043E-2,-3.400000185E-2,-3.700000048E-2,5.216320708E-2
8.845325339E0,1.300000027E-2,-3.900000080E-2,-3.200000152E-2,5.209606671E-2
8.855061954E0,1.700000092E-2,-4.100000113E-2,-7.000000216E-3,4.493328529E-2
8.864798803E0,3.400000185E-2,-2.600000054E-2,2.099999972E-2,4.767599125E-2
8.874535497E0,3.599999845E-2,-1.099999994E-2,3.099999949E-2,4.876473988E-2
8.884272327E0,4.300000146E-2,-1.000000047E-3,3.400000185E-2,5.482700294E-2
8.894009021E0,2.700000070E-2,0.000000000E0,4.399999976E-2,5.162363816E-2
8.903745851E0,2.199999988E-2,2.600000054E-2,4.199999943E-2,5.407402311E-2
8.913482545E0,2.099999972E-2,1.200000010E-2,5.200000107E-2,5.734980473E-2
8.923219380E0,1.499999966E-2,2.000000095E-3,6.199999899E-2,6.382005848E-2
8.932955997E0,1.400000043E-2,-9.999999776E-3,6.800000370E-2,7.014271530E-2
8.942692687E0,-2.000000095E-3,-8.000000380E-3,8.299999684E-2,8.340862954E-2
8.952429534E0,9.999999776E-3,1.000000047E-3,6.700000167E-2,6.774954036E-2
8.962166267E0,3.700000048E-2,-8.000000380E-3,2.500000037E-2,4.536518555E-2
8.971903111E0,6.300000101E-2,-8.000000380E-3,-3.099999949E-2,7.066823970E-2
8.981639795E0,4.600000009E-2,-2.099999972E-2,-4.300000146E-2,6.637770802E-2
8.991376640E0,0.000000000E0,-1.799999923E-2,-3.599999845E-2,4.024922186E-2
9.001113252E0,-5.400000140E-2,-6.000000052E-3,3.000000026E-3,5.441507284E-2
9.010849942E0,-8.699999750E-2,-8.000000380E-3,5.999999866E-2,1.059858453E-1
9.020586769E0,-1.010000035E-1,-2.400000021E-2,7.199999690E-2,1.263368524E-1
9.030323464E0,-8.200000226E-2,-1.700000092E-2,6.100000069E-2,1.036050215E-1
9.040060055E0,-7.800000161E-2,-6.000000052E-3,7.299999893E-2,1.070000004E-1
9.049796899E0,-4.899999872E-2,1.999999955E-2,4.800000042E-2,7.144928199E-2
9.059533594E0,2.000000095E-3,2.300000004E-2,3.000000026E-3,2.328089351E-2
9.069270438E0,2.199999988E-2,1.499999966E-2,-2.199999988E-2,3.453983178E-2
9.079007132E0,2.899999917E-2,1.700000092E-2,-1.700000092E-2,3.766961660E-2
9.088743976E0,5.600000173E-2,1.099999994E-2,4.999999888E-3,5.728874402E-2
9.098480671E0,3.799999878E-2,-2.600000054E-2,2.099999972E-2,5.060632296E-2
9.108217281E0,1.700000092E-2,-4.199999943E-2,2.300000004E-2,5.081338392E-2
9.117954125E0,-2.000000095E-3,-5.099999905E-2,3.999999911E-2,6.484597005E-2
9.127690829E0,-3.500000015E-2,-4.500000179E-2,3.099999949E-2,6.489221941E-2
9.137427673E0,-5.099999905E-2,-3.599999845E-2,2.600000054E-2,6.762395891E-2
9.147164353E0,-3.900000080E-2,-1.499999966E-2,3.299999982E-2,5.324471843E-2
9.156900969E0,-6.000000052E-3,-1.000000047E-3,6.000000052E-3,8.544003824E-3
9.166637841E0,1.499999966E-2,1.600000076E-2,-2.300000004E-2,3.178049742E-2
9.176374764E0,-6.000000052E-3,3.700000048E-2,-3.400000185E-2,5.060632531E-2
9.186111381E0,2.300000004E-2,6.400000304E-2,-1.400000043E-2,6.943342425E-2
9.195848074E0,3.299999982E-2,4.800000042E-2,2.000000095E-3,5.828378873E-2
9.205584894E0,5.299999937E-2,4.500000179E-2,2.099999972E-2,7.262919580E-2
9.215321588E0,3.700000048E-2,2.400000021E-2,6.100000069E-2,7.527283792E-2
9.225058199E0,1.799999923E-2,1.899999939E-2,1.129999980E-1,1.159913769E-1
9.234795058E0,8.999999613E-3,-1.099999994E-2,1.270000041E-1,1.277928050E-1
9.244531752E0,-4.999999888E-3,-1.999999955E-2,1.169999987E-1,1.188023555E-1
9.254268581E0,-1.700000092E-2,-3.700000048E-2,1.220000014E-1,1.286157082E-1
9.264005276E0,-3.599999845E-2,-5.099999905E-2,1.209999993E-1,1.361543229E-1
9.273742135E0,-3.000000026E-3,-6.899999827E-2,8.699999750E-2,1.110810485E-1
9.283478829E0,4.000000190E-3,-7.000000030E-2,7.199999690E-2,1.004987542E-1
9.293215429E0,-8.000000380E-3,-4.800000042E-2,5.400000140E-2,7.269112874E-2
9.302952274E0,-1.600000076E-2,-2.999999933E-2,-1.300000027E-2,3.640054932E-2
9.312689003E0,3.000000026E-3,2.000000095E-3,-5.099999905E-2,5.112729118E-2
9.322425847E0,-3.000000026E-3,2.500000037E-2,-7.100000232E-2,7.533259818E-2
9.332162541E0,9.999999776E-3,5.600000173E-2,-3.200000152E-2,6.526867768E-2
9.341899157E0,3.999999911E-2,5.799999833E-2,-1.700000092E-2,7.247758113E-2
9.351636030E0,7.199999690E-2,5.000000075E-2,-4.800000042E-2,9.993998033E-2
9.361372724E0,9.899999946E-2,5.200000107E-2,-8.299999684E-2,1.392623405E-1
9.371109554E0,6.199999899E-2,5.000000075E-2,-6.599999964E-2,1.034408039E-1
9.380846258E0,-1.200000010E-2,6.199999899E-2,2.000000095E-3,6.318227502E-2
9.390583102E0,-5.400000140E-2,5.999999866E-2,5.200000107E-2,9.602083160E-2
9.400319805E0,-5.999999866E-2,4.300000146E-2,1.019999981E-1,1.259086954E-1
9.410056421E0,-4.800000042E-2,1.999999955E-2,1.299999952E-1,1.400142806E-1
9.419793265E0,-2.600000054E-2,2.199999988E-2,1.609999985E-1,1.645630564E-1
9.429529959E0,-1.600000076E-2,8.000000380E-3,1.369999945E-1,1.381629419E-1
9.439266823E0,-1.200000010E-2,2.000000095E-3,9.300000221E-2,9.379232598E-2
9.449003518E0,1.300000027E-2,4.000000190E-3,2.400000021E-2,2.758622878E-2
9.458740352E0,7.000000216E-3,7.000000216E-3,-3.799999878E-2,3.926830673E-2
9.468476969E0,2.400000021E-2,-2.000000095E-3,-9.700000286E-2,9.994498770E-2
9.478213895E0,3.099999949E-2,-7.000000216E-3,-9.600000083E-2,1.011236873E-1
9.487950513E0,3.500000015E-2,9.999999776E-3,-8.100000024E-2,8.880315335E-2
9.497687200E0,4.000000190E-3,3.000000026E-3,-4.199999943E-2,4.229657142E-2
9.507424044E0,8.000000380E-3,-6.000000052E-3,3.000000026E-3,1.044030684E-2
9.517160744E0,7.000000216E-3,-1.600000076E-2,-9.999999776E-3,2.012461237E-2
9.526897344E0,-1.099999994E-2,-6.000000052E-3,1.999999955E-2,2.360084705E-2
9.536634188E0,-3.900000080E-2,-1.000000047E-3,4.199999943E-2,5.732364273E-2
9.546370869E0,-2.199999988E-2,-3.000000026E-3,2.800000086E-2,3.573513738E-2
9.556107713E0,-4.300000146E-2,-1.899999939E-2,4.699999839E-2,6.647555905E-2
9.565844392E0,-3.099999949E-2,-8.999999613E-3,7.299999893E-2,7.981854299E-2
9.575581236E0,-4.999999888E-3,1.200000010E-2,8.900000155E-2,8.994442883E-2
9.585317946E0,3.000000026E-3,1.700000092E-2,5.799999833E-2,6.051445974E-2
9.595054790E0,-3.000000026E-3,2.800000086E-2,8.999999613E-3,2.956349170E-2
9.604791411E0,-6.000000052E-3,3.700000048E-2,-8.999999613E-3,3.854867091E-2
9.614528102E0,1.999999955E-2,2.999999933E-2,-1.300000027E-2,3.832753513E-2
9.624264972E0,2.500000037E-2,1.600000076E-2,1.300000027E-2,3.240370426E-2
9.634001666E0,1.999999955E-2,8.999999613E-3,1.099999994E-2,2.453568776E-2
9.643738496E0,-4.999999888E-3,9.999999776E-3,2.500000037E-2,2.738612811E-2
9.653475114E0,-1.099999994E-2,6.000000052E-3,6.400000304E-2,6.521503192E-2
9.663212049E0,1.499999966E-2,-2.000000095E-3,7.999999821E-2,8.141866926E-2
9.672948666E0,3.099999949E-2,-1.099999994E-2,7.500000298E-2,8.189627839E-2
9.682685350E0,2.700000070E-2,7.000000216E-3,6.800000370E-2,7.349830300E-2
9.692422194E0,-4.500000179E-2,7.000000216E-3,8.100000024E-2,9.292470179E-2
9.702158917E0,-1.600000076E-2,6.000000052E-3,6.700000167E-2,6.914477745E-2
9.711895765E0,1.099999994E-2,-2.500000037E-2,6.000000052E-3,2.796426323E-2
9.721632393E0,-2.999999933E-2,-1.099999994E-2,1.400000043E-2,3.488552666E-2
9.731369083E0,-3.599999845E-2,4.999999888E-3,6.599999964E-2,7.534586810E-2
9.741105938E0,3.400000185E-2,-1.200000010E-2,1.040000021E-1,1.100727059E-1
9.750842632E0,8.600000292E-2,-3.299999982E-2,8.600000292E-2,1.260198436E-1
9.760579477E0,8.699999750E-2,-3.799999878E-2,6.700000167E-2,1.161981054E-1
9.770316171E0,8.000000380E-3,-8.999999613E-3,8.000000380E-3,1.445683247E-2
9.780053025E0,-4.300000146E-2,1.600000076E-2,-3.099999949E-2,5.537147387E-2
9.789789643E0,-7.000000030E-2,1.400000043E-2,-3.999999911E-2,8.182909007E-2
9.799526333E0,-3.299999982E-2,1.000000047E-3,-4.000000190E-3,3.325657814E-2
9.809263179E0,0.000000000E0,0.000000000E0,-4.999999888E-3,4.999999888E-3
9.818999873E0,2.999999933E-2,4.999999888E-3,-2.400000021E-2,3.874274085E-2
9.828736718E0,3.000000026E-3,4.999999888E-3,-5.600000173E-2,5.630275475E-2
9.838473344E0,-1.999999955E-2,1.400000043E-2,-8.500000089E-2,8.843641866E-2
9.848210265E0,3.000000026E-3,1.200000010E-2,-5.200000107E-2,5.345091313E-2
9.857946878E0,3.200000152E-2,-1.000000047E-3,0.000000000E0,3.201562271E-2
9.867683561E0,1.999999955E-2,-4.000000190E-3,8.399999887E-2,8.644072994E-2
9.877420405E0,4.199999943E-2,-1.899999939E-2,1.560000032E-1,1.626683772E-1
9.887157084E0,2.899999917E-2,-3.299999982E-2,2.090000063E-1,2.135673256E-1
9.896893928E0,8.000000380E-3,-3.099999949E-2,1.920000017E-1,1.946509713E-1
9.906630521E0,-3.500000015E-2,-9.999999776E-3,1.509999931E-1,1.553254580E-1
9.916367211E0,-4.600000009E-2,-2.600000054E-2,1.070000008E-1,1.193356619E-1
9.926104038E0,-4.699999839E-2,-5.499999970E-2,2.999999933E-2,7.831985556E-2
9.935840733E0,-4.999999888E-3,-4.899999872E-2,-1.700000092E-2,5.210566097E-2
9.945577558E0,-4.999999888E-3,-1.300000027E-2,-1.000000047E-3,1.396424026E-2
9.955314252E0,-2.099999972E-2,-5.200000107E-2,-7.000000030E-2,8.969392477E-2
9.965050868E0,-5.200000107E-2,-4.000000190E-3,-7.000000030E-2,8.729261226E-2
9.974787712E0,-8.600000292E-2,4.000000190E-3,-4.600000009E-2,9.761147736E-2
9.984524387E0,-5.000000075E-2,6.000000052E-3,-3.000000026E-3,5.044799377E-2
9.994261231E0,1.600000076E-2,2.400000021E-2,3.999999911E-2,4.931531165E-2
1.000399791E1,5.700000003E-2,2.099999972E-2,6.499999762E-2,8.896628396E-2
1.001373476E1,9.499999881E-2,3.099999949E-2,3.900000080E-2,1.072706847E-1
1.002347137E1,7.699999958E-2,3.299999982E-2,1.600000076E-2,8.528774794E-2
1.003320804E1,8.299999684E-2,3.400000185E-2,1.899999939E-2,9.168423844E-2
1.004294489E1,7.400000095E-2,2.999999933E-2,4.000000190E-3,7.994998501E-2
1.005268158E1,6.100000069E-2,3.099999949E-2,-4.999999888E-3,6.860758013E-2
1.006241843E1,5.000000075E-2,3.799999878E-2,9.999999776E-3,6.359245220E-2
1.007215512E1,2.800000086E-2,2.800000086E-2,-3.000000026E-3,3.971146052E-2
1.008189198E1,3.200000152E-2,-1.000000047E-3,-7.000000216E-3,3.277194075E-2
1.009162867E1,9.999999776E-3,-3.000000026E-3,1.300000027E-2,1.667333208E-2
1.010136529E1,3.000000026E-3,7.000000216E-3,2.999999933E-2,3.095157448E-2
1.011110213E1,-8.000000380E-3,-4.000000190E-3,4.800000042E-2,4.882622295E-2
1.012083884E1,2.000000095E-3,-1.899999939E-2,3.599999845E-2,4.075536610E-2
1.013057568E1,2.000000095E-3,-8.999999613E-3,2.099999972E-2,2.293468948E-2
1.014031238E1,-1.600000076E-2,-2.000000095E-3,2.400000021E-2,2.891366519E-2
1.015004923E1,-8.999999613E-3,4.000000190E-3,-1.899999939E-2,2.140093389E-2
1.015978594E1,-1.799999923E-2,3.000000026E-3,-3.799999878E-2,4.215447639E-2
1.016952255E1,-2.099999972E-2,1.000000047E-3,-1.600000076E-2,2.641968986E-2
1.017925938E1,-2.899999917E-2,1.000000047E-3,3.299999982E-2,4.394314440E-2
1.018899608E1,0.000000000E0,-7.000000216E-3,5.900000036E-2,5.941380349E-2
1.019873291E1,-3.000000026E-3,-1.400000043E-2,9.499999881E-2,9.607288788E-2
1.020846961E1,-4.000000190E-3,0.000000000E0,9.600000083E-2,9.608329804E-2
1.021820647E1,-2.199999988E-2,-6.000000052E-3,1.180000007E-1,1.201831942E-1
1.022794308E1,-1.400000043E-2,7.000000216E-3,9.300000221E-2,9.430800828E-2
1.023767977E1,-2.800000086E-2,-3.000000026E-3,7.900000364E-2,8.386894910E-2
1.024741662E1,-2.500000037E-2,2.000000095E-3,5.700000003E-2,6.227359009E-2
1.025715330E1,-9.999999776E-3,8.999999613E-3,3.700000048E-2,3.937003967E-2
1.026689015E1,-4.999999888E-3,2.500000037E-2,3.400000185E-2,4.249706041E-2
1.027662677E1,1.600000076E-2,3.900000080E-2,2.000000095E-3,4.220189673E-2
1.028636369E1,9.999999776E-3,2.899999917E-2,-3.400000185E-2,4.579301336E-2
1.029610038E1,1.499999966E-2,1.700000092E-2,-6.499999762E-2,6.884039302E-2
1.030583700E1,9.999999776E-3,2.199999988E-2,-5.400000140E-2,5.916079903E-2
1.031557385E1,1.700000092E-2,1.899999939E-2,-5.099999905E-2,5.701754038E-2
1.032531057E1,2.800000086E-2,0.000000000E0,-1.499999966E-2,3.176476095E-2
1.033504741E1,4.800000042E-2,1.000000047E-3,-3.000000026E-3,4.810405430E-2
1.034478402E1,5.099999905E-2,1.099999994E-2,3.000000026E-3,5.225896958E-2
1.035452071E1,4.300000146E-2,-3.000000026E-3,2.999999933E-2,5.251666484E-2
1.036425755E1,7.000000216E-3,-6.000000052E-3,2.199999988E-2,2.385372085E-2
1.037399425E1,-2.000000095E-3,4.999999888E-3,1.700000092E-2,1.783255536E-2
1.038373110E1,1.000000047E-3,4.000000190E-3,2.300000004E-2,2.336664297E-2
1.039346779E1,-2.300000004E-2,0.000000000E0,4.899999872E-2,5.412947327E-2
1.040320463E1,-3.999999911E-2,7.000000216E-3,4.600000009E-2,6.135959534E-2
1.041294133E1,-2.400000021E-2,-1.099999994E-2,5.299999937E-2,5.921148489E-2
1.042267794E1,1.799999923E-2,-3.000000026E-3,2.199999988E-2,2.858321128E-2
1.043241478E1,0.000000000E0,2.000000095E-3,0.000000000E0,2.000000095E-3
1.044215148E1,-6.000000052E-3,2.400000021E-2,-9.999999776E-3,2.668332824E-2
1.045188834E1,-1.000000047E-3,3.500000015E-2,-3.000000026E-3,3.514256693E-2
1.046162504E1,1.899999939E-2,2.199999988E-2,-8.999999613E-3,3.043024753E-2
1.047136190E1,2.000000095E-3,2.999999933E-2,-6.000000052E-3,3.065941879E-2
1.048109859E1,-1.000000047E-3,4.399999976E-2,0.000000000E0,4.401136193E-2
1.049083545E1,8.999999613E-3,4.899999872E-2,1.999999955E-2,5.368426072E-2
1.050057207E1,2.899999917E-2,4.300000146E-2,1.700000092E-2,5.458021719E-2
1.051030878E1,2.600000054E-2,5.400000140E-2,4.999999888E-3,6.014150130E-2
1.052004563E1,2.000000095E-3,3.700000048E-2,-2.099999972E-2,4.259107916E-2
1.052978232E1,-1.799999923E-2,2.800000086E-2,1.099999994E-2,3.505709656E-2
1.053951894E1,4.999999888E-3,1.899999939E-2,5.799999833E-2,6.123724179E-2
1.054925578E1,4.000000190E-3,0.000000000E0,7.400000095E-2,7.410803022E-2
1.055899248E1,-8.000000380E-3,-1.899999939E-2,7.400000095E-2,7.681796746E-2
1.056872932E1,-2.199999988E-2,-1.200000010E-2,7.000000030E-2,7.435052144E-2
1.057846601E1,-2.400000021E-2,-2.099999972E-2,7.999999821E-2,8.612200481E-2
1.058820283E1,-7.000000216E-3,-3.700000048E-2,5.700000003E-2,6.831544512E-2
1.059793953E1,-1.099999994E-2,-4.500000179E-2,2.800000086E-2,5.412947633E-2
1.060767636E1,-4.000000190E-3,-3.200000152E-2,-1.700000092E-2,3.645545405E-2
1.061741298E1,9.999999776E-3,-2.300000004E-2,-4.100000113E-2,4.806246030E-2
1.062714965E1,4.699999839E-2,-1.200000010E-2,-4.100000113E-2,6.351377759E-2
1.063688649E1,4.800000042E-2,-3.000000026E-3,-3.799999878E-2,6.129437125E-2
1.064662320E1,7.000000216E-3,0.000000000E0,1.400000043E-2,1.565247633E-2
1.065636004E1,1.300000027E-2,1.099999994E-2,5.600000173E-2,5.853204421E-2
1.066609666E1,2.500000037E-2,2.000000095E-3,8.200000226E-2,8.574963784E-2
1.067583336E1,2.099999972E-2,0.000000000E0,9.099999815E-2,9.339164658E-2
1.068557021E1,-1.300000027E-2,3.999999911E-2,7.999999821E-2,9.038251849E-2
1.069530687E1,-8.999999613E-3,3.700000048E-2,6.700000167E-2,7.706490934E-2
1.070504372E1,8.000000380E-3,3.200000152E-2,5.000000075E-2,5.989991801E-2
1.071478042E1,1.400000043E-2,2.099999972E-2,3.700000048E-2,4.478839175E-2
1.072451726E1,-1.899999939E-2,3.400000185E-2,3.500000015E-2,5.236411092E-2
1.073425389E1,-1.899999939E-2,2.800000086E-2,3.400000185E-2,4.796874139E-2
1.074399058E1,-3.099999949E-2,4.999999888E-3,1.200000010E-2,3.361547218E-2
1.075372742E1,-2.600000054E-2,0.000000000E0,1.099999994E-2,2.823118890E-2
1.076346411E1,-2.999999933E-2,-6.000000052E-3,-2.000000095E-3,3.065941879E-2
1.077320094E1,-7.000000216E-3,-9.999999776E-3,-1.799999923E-2,2.174856250E-2
1.078293764E1,-2.700000070E-2,-1.899999939E-2,-4.399999976E-2,5.500909010E-2
1.079267450E1,-8.999999613E-3,-1.099999994E-2,-5.600000173E-2,5.777542891E-2
1.080241119E1,-8.999999613E-3,-6.000000052E-3,-4.100000113E-2,4.240283111E-2
1.081214776E1,-4.000000190E-3,0.000000000E0,-1.400000043E-2,1.456022025E-2
1.082188461E1,-2.099999972E-2,-6.000000052E-3,3.200000152E-2,3.874274237E-2
1.083162131E1,-2.700000070E-2,-3.000000026E-3,1.010000035E-1,1.045896780E-1
1.084135815E1,-1.600000076E-2,-2.099999972E-2,1.439999938E-1,1.464001306E-1
1.085109477E1,-1.099999994E-2,-1.899999939E-2,1.500000060E-1,1.515981588E-1
1.086083146E1,-2.000000095E-3,-1.300000027E-2,1.040000021E-1,1.048284334E-1
1.087056830E1,1.300000027E-2,-7.000000216E-3,6.100000069E-2,6.276145388E-2
1.088030499E1,2.600000054E-2,0.000000000E0,7.000000216E-3,2.692582461E-2
1.089004186E1,3.200000152E-2,-4.999999888E-3,-4.199999943E-2,5.303772288E-2
1.089977855E1,3.700000048E-2,1.300000027E-2,-6.100000069E-2,7.251896391E-2
1.090951540E1,2.899999917E-2,4.000000190E-3,-3.599999845E-2,4.640042932E-2
1.091925210E1,3.400000185E-2,0.000000000E0,-1.999999955E-2,3.944616721E-2
1.092898871E1,3.000000026E-3,-1.200000010E-2,4.999999888E-3,1.334166412E-2
1.093872554E1,-1.200000010E-2,-1.400000043E-2,2.400000021E-2,3.026549231E-2
1.094846224E1,-1.099999994E-2,-6.000000052E-3,2.999999933E-2,3.251153578E-2
1.095819905E1,-6.000000052E-3,-6.000000052E-3,4.899999872E-2,4.972926579E-2
1.096793567E1,-1.099999994E-2,3.000000026E-3,4.300000146E-2,4.448595424E-2
1.097767234E1,-1.099999994E-2,-9.999999776E-3,4.500000179E-2,4.739198408E-2
1.098740929E1,-1.099999994E-2,1.000000047E-3,3.400000185E-2,3.574912760E-2
1.099714591E1,-1.799999923E-2,1.000000047E-3,2.700000070E-2,3.246536632E-2
1.100688274E1,-1.999999955E-2,4.000000190E-3,1.799999923E-2,2.720294020E-2
1.101661944E1,-5.099999905E-2,2.099999972E-2,1.499999966E-2,5.715767561E-2
1.102635628E1,-5.700000003E-2,8.999999613E-3,1.400000043E-2,5.938013143E-2
1.103609297E1,-7.400000095E-2,1.600000076E-2,2.600000054E-2,8.004998559E-2
1.104582981E1,-5.400000140E-2,0.000000000E0,4.500000179E-2,7.029224930E-2
1.105556643E1,-3.999999911E-2,2.000000095E-3,7.299999893E-2,8.326463698E-2
1.106530310E1,-6.000000052E-3,-2.000000095E-3,8.699999750E-2,8.722957965E-2
1.107503994E1,3.299999982E-2,-8.999999613E-3,7.000000030E-2,7.791020487E-2
1.108477660E1,4.899999872E-2,-6.000000052E-3,3.400000185E-2,5.994163829E-2
1.109451345E1,2.600000054E-2,2.000000095E-3,-1.499999966E-2,3.008321822E-2
1.110425015E1,2.300000004E-2,1.300000027E-2,-3.900000080E-2,4.710626362E-2
1.111398677E1,2.899999917E-2,2.099999972E-2,-3.599999845E-2,5.077400741E-2
1.112372360E1,2.999999933E-2,2.800000086E-2,-1.200000010E-2,4.275511678E-2
1.113346030E1,5.299999937E-2,3.099999949E-2,-1.999999955E-2,6.457553627E-2
1.114319715E1,3.099999949E-2,3.900000080E-2,-1.899999939E-2,5.331979002E-2
1.115293386E1,-1.499999966E-2,5.000000075E-2,-2.700000070E-2,5.877074189E-2
1.116267070E1,-9.999999776E-3,4.899999872E-2,-1.300000027E-2,5.167204154E-2
1.117240732E1,-3.299999982E-2,2.800000086E-2,0.000000000E0,4.327817044E-2
1.118214401E1,-8.000000380E-3,2.400000021E-2,3.799999878E-2,4.565084800E-2
1.119188095E1,-3.400000185E-2,1.600000076E-2,9.499999881E-2,1.021616363E-1
1.120161757E1,-3.599999845E-2,-9.999999776E-3,1.250000000E-1,1.304645541E-1
1.121135442E1,-2.400000021E-2,-1.400000043E-2,1.230000034E-1,1.260991707E-1
1.122109112E1,-1.300000027E-2,-1.499999966E-2,9.000000358E-2,9.216290274E-2
1.123082798E1,-3.000000026E-3,2.000000095E-3,8.299999684E-2,8.307827319E-2
1.124056460E1,4.000000190E-3,-3.000000026E-3,5.799999833E-2,5.821511666E-2
1.125030134E1,1.799999923E-2,4.999999888E-3,1.499999966E-2,2.395829629E-2
1.126003819E1,2.300000004E-2,3.000000026E-3,-3.500000015E-2,4.198809370E-2
1.126977491E1,4.000000190E-3,2.099999972E-2,-5.200000107E-2,5.622277209E-2
1.127951153E1,7.000000216E-3,3.099999949E-2,-3.900000080E-2,5.030904525E-2
1.128924843E1,3.099999949E-2,2.099999972E-2,-3.900000080E-2,5.406477614E-2
1.129898505E1,2.199999988E-2,3.000000026E-3,-2.199999988E-2,3.125699905E-2
1.130872197E1,-1.300000027E-2,2.300000004E-2,-3.200000152E-2,4.149698912E-2
1.131845859E1,-2.500000037E-2,1.899999939E-2,-2.099999972E-2,3.777565332E-2
1.132819542E1,-4.199999943E-2,4.000000190E-3,7.000000216E-3,4.276680906E-2
1.133793211E1,-2.099999972E-2,2.000000095E-3,5.600000173E-2,5.984145872E-2
1.134766897E1,8.999999613E-3,1.000000047E-3,1.030000001E-1,1.033972921E-1
1.135740559E1,1.899999939E-2,1.300000027E-2,1.019999981E-1,1.045657668E-1
1.136714230E1,1.600000076E-2,2.500000037E-2,8.699999750E-2,9.192387942E-2
1.137687915E1,-4.000000190E-3,3.900000080E-2,6.400000304E-2,7.505331740E-2
1.138661587E1,1.899999939E-2,4.300000146E-2,5.700000003E-2,7.388504656E-2
1.139635271E1,3.200000152E-2,2.899999917E-2,2.999999933E-2,5.258326738E-2
1.140608941E1,1.499999966E-2,1.200000010E-2,1.499999966E-2,2.437211485E-2
1.141582625E1,1.499999966E-2,1.899999939E-2,2.600000054E-2,3.552463926E-2
1.142556296E1,0.000000000E0,1.799999923E-2,3.099999949E-2,3.584689583E-2
1.143529958E1,3.000000026E-3,6.000000052E-3,2.199999988E-2,2.299999990E-2
1.144503642E1,-8.999999613E-3,0.000000000E0,8.000000380E-3,1.204159454E-2
1.145477312E1,-3.200000152E-2,-1.200000010E-2,-3.200000152E-2,4.681880175E-2
1.146450995E1,-5.400000140E-2,-2.500000037E-2,-2.999999933E-2,6.664082930E-2
1.147424662E1,-3.500000015E-2,-2.199999988E-2,-2.800000086E-2,4.992995147E-2
1.148398324E1,-2.899999917E-2,-1.700000092E-2,-1.600000076E-2,3.722902104E-2
1.149372005E1,-1.300000027E-2,-2.099999972E-2,2.000000095E-3,2.477902330E-2
1.150345675E1,-7.000000216E-3,-1.799999923E-2,2.300000004E-2,3.003331446E-2
1.151319358E1,3.200000152E-2,-3.099999949E-2,5.200000107E-2,6.847627456E-2
1.152293027E1,2.400000021E-2,-1.899999939E-2,5.400000140E-2,6.207253932E-2
1.153266711E1,4.500000179E-2,2.000000095E-3,5.600000173E-2,7.186793690E-2
1.154240380E1,4.399999976E-2,1.200000010E-2,6.100000069E-2,7.616429652E-2
1.155214040E1,5.099999905E-2,2.400000021E-2,4.899999872E-2,7.468600797E-2
1.156187724E1,4.100000113E-2,2.099999972E-2,4.300000146E-2,6.301587266E-2
1.157161392E1,3.599999845E-2,1.400000043E-2,4.600000009E-2,6.006662891E-2
1.158135076E1,3.799999878E-2,1.700000092E-2,3.900000080E-2,5.704384280E-2
1.159108745E1,3.299999982E-2,-2.000000095E-3,3.200000152E-2,4.601086921E-2
1.160082429E1,1.700000092E-2,-8.000000380E-3,4.999999888E-3,1.944222303E-2
1.161056089E1,-3.000000026E-3,3.000000026E-3,-6.000000052E-3,7.348469292E-3
1.162029781E1,-1.499999966E-2,3.000000026E-3,1.400000043E-2,2.073644141E-2
1.163003446E1,-2.199999988E-2,-2.199999988E-2,3.500000015E-2,4.682947790E-2
1.163977115E1,-2.099999972E-2,-1.099999994E-2,3.200000152E-2,3.982461656E-2
1.164950800E1,-2.099999972E-2,8.000000380E-3,3.599999845E-2,4.243818896E-2
1.165924469E1,-7.000000216E-3,8.000000380E-3,4.300000146E-2,4.429447070E-2
1.166898130E1,-8.999999613E-3,7.000000216E-3,3.099999949E-2,3.303028859E-2
1.167871815E1,0.000000000E0,6.000000052E-3,1.499999966E-2,1.615549413E-2
1.168845485E1,-2.899999917E-2,1.099999994E-2,1.499999966E-2,3.445286549E-2
1.169819169E1,-3.099999949E-2,2.199999988E-2,2.999999933E-2,4.842519926E-2
1.170792840E1,-1.899999939E-2,-3.000000026E-3,4.699999839E-2,5.078385399E-2
1.171766525E1,-6.000000052E-3,-6.000000052E-3,4.800000042E-2,4.874423085E-2
1.172740194E1,-1.099999994E-2,-3.000000026E-3,5.700000003E-2,5.812916654E-2
1.173713878E1,1.200000010E-2,2.000000095E-3,7.299999893E-2,7.400675541E-2
1.174687548E1,5.999999866E-2,-3.599999845E-2,5.400000140E-2,8.838551849E-2
1.175661210E1,5.200000107E-2,-2.300000004E-2,1.799999923E-2,5.964059092E-2
1.176634893E1,3.999999911E-2,-4.999999888E-3,-2.899999917E-2,4.965883485E-2
1.177608563E1,9.999999776E-3,-3.000000026E-3,-5.200000107E-2,5.303772344E-2
1.178582226E1,2.199999988E-2,6.000000052E-3,-8.999999613E-3,2.451530111E-2
1.179555915E1,3.099999949E-2,1.300000027E-2,3.099999949E-2,4.572745285E-2
1.180529584E1,1.700000092E-2,1.099999994E-2,6.499999762E-2,6.808083225E-2
1.181503268E1,1.600000076E-2,2.199999988E-2,7.000000030E-2,7.509993383E-2
1.182476938E1,2.000000095E-3,4.600000009E-2,6.599999964E-2,8.047359792E-2
1.183450622E1,4.000000190E-3,4.199999943E-2,3.599999845E-2,5.546169707E-2
1.184424291E1,8.999999613E-3,3.500000015E-2,3.000000026E-3,3.626292878E-2
1.185397975E1,-3.000000026E-3,3.299999982E-2,-7.000000216E-3,3.386738832E-2
1.186371645E1,-4.000000190E-3,4.999999888E-3,4.000000190E-3,7.549834563E-3
1.187345307E1,1.000000047E-3,-1.600000076E-2,2.700000070E-2,3.140063793E-2
1.188318991E1,-2.000000095E-3,-2.700000070E-2,4.399999976E-2,5.166236558E-2
1.189292662E1,-1.600000076E-2,-2.800000086E-2,5.000000075E-2,5.949790036E-2
1.190266347E1,-1.799999923E-2,-4.899999872E-2,5.000000075E-2,7.228416093E-2
1.191240017E1,-4.999999888E-3,-4.399999976E-2,3.599999845E-2,5.707013112E-2
1.192213702E1,1.000000047E-3,-3.099999949E-2,1.400000043E-2,3.402939877E-2
1.193187368E1,0.000000000E0,-2.400000021E-2,9.999999776E-3,2.600000011E-2
1.194161030E1,2.300000004E-2,-1.300000027E-2,-3.000000026E-3,2.658947177E-2
1.195134711E1,1.499999966E-2,-9.999999776E-3,-2.199999988E-2,2.844292496E-2
1.196108380E1,8.000000380E-3,-2.000000095E-3,-2.199999988E-2,2.349468027E-2
1.197082065E1,6.000000052E-3,4.999999888E-3,7.000000216E-3,1.048808860E-2
1.198055727E1,1.400000043E-2,8.000000380E-3,3.799999878E-2,4.127953398E-2
1.199029416E1,-4.000000190E-3,4.000000190E-3,6.300000101E-2,6.325345944E-2
1.200003078E1,-1.300000027E-2,1.400000043E-2,5.999999866E-2,6.296824484E-2
1.200976747E1,-1.799999923E-2,4.000000190E-3,5.499999970E-2,5.800861954E-2
1.201950431E1,-1.200000010E-2,1.099999994E-2,6.899999827E-2,7.089428583E-2
1.202924101E1,2.800000086E-2,1.000000047E-3,6.599999964E-2,7.170076709E-2
1.203897785E1,5.499999970E-2,4.999999888E-3,7.800000161E-2,9.557196355E-2
1.204871454E1,2.300000004E-2,2.800000086E-2,8.900000155E-2,9.609370597E-2
1.205845115E1,-6.000000052E-3,3.200000152E-2,5.099999905E-2,6.050619803E-2
1.206818800E1,-2.700000070E-2,5.000000075E-2,1.099999994E-2,5.787918547E-2
1.207792469E1,-3.299999982E-2,3.900000080E-2,-2.099999972E-2,5.523585827E-2
1.208766155E1,-1.899999939E-2,3.799999878E-2,-1.300000027E-2,4.442971856E-2
1.209739821E1,0.000000000E0,2.300000004E-2,-2.800000086E-2,3.623534256E-2
1.210713483E1,3.000000026E-3,1.899999939E-2,-5.099999905E-2,5.450687920E-2
1.211687167E1,-1.099999994E-2,1.400000043E-2,-1.000000047E-3,1.783255481E-2
1.212660837E1,-6.400000304E-2,2.199999988E-2,4.999999888E-3,6.786015313E-2
1.213634520E1,-4.899999872E-2,-1.099999994E-2,4.999999888E-3,5.046781026E-2
1.214608189E1,-4.800000042E-2,-6.000000052E-3,1.600000076E-2,5.095095745E-2
1.215581872E1,-3.400000185E-2,1.700000092E-2,2.800000086E-2,4.721228871E-2
1.216555541E1,7.000000216E-3,3.099999949E-2,5.400000140E-2,6.265780177E-2
1.217529225E1,4.199999943E-2,1.700000092E-2,4.199999943E-2,6.178187385E-2
1.218502887E1,5.400000140E-2,1.999999955E-2,3.999999911E-2,7.011419301E-2
1.219476555E1,5.600000173E-2,8.999999613E-3,4.199999943E-2,7.057620094E-2
1.220450239E1,4.199999943E-2,1.300000027E-2,4.399999976E-2,6.220128567E-2
1.221423909E1,3.099999949E-2,8.999999613E-3,5.099999905E-2,6.035726853E-2
1.222397593E1,2.600000054E-2,-1.099999994E-2,4.100000113E-2,4.977951506E-2
1.223371264E1,1.000000047E-3,0.000000000E0,2.700000070E-2,2.701851287E-2
1.224344949E1,-1.000000047E-3,-4.000000190E-3,1.700000092E-2,1.749285663E-2
1.225318612E1,-1.099999994E-2,-1.200000010E-2,-9.999999776E-3,1.910497309E-2
1.226292281E1,-3.099999949E-2,-1.700000092E-2,-2.800000086E-2,4.509988967E-2
1.227265966E1,-4.100000113E-2,-9.999999776E-3,-2.600000054E-2,4.956813610E-2
1.228239635E1,-6.100000069E-2,-4.000000190E-3,-1.899999939E-2,6.401562358E-2
1.229213322E1,-7.699999958E-2,3.000000026E-3,-7.000000216E-3,7.737570639E-2
1.230186991E1,-2.999999933E-2,1.400000043E-2,-7.000000216E-3,3.383784826E-2
1.231160654E1,-6.000000052E-3,2.899999917E-2,8.999999613E-3,3.095157420E-2
1.232134339E1,1.400000043E-2,3.200000152E-2,8.999999613E-3,3.606937901E-2
1.233108006E1,7.000000216E-3,5.200000107E-2,1.099999994E-2,5.360970167E-2
1.234081690E1,6.000000052E-3,3.400000185E-2,2.199999988E-2,4.093898046E-2
1.235055360E1,9.999999776E-3,3.700000048E-2,3.200000152E-2,4.992995221E-2
1.236029044E1,7.000000216E-3,2.099999972E-2,4.399999976E-2,4.925444112E-2
1.237002706E1,-4.000000190E-3,2.300000004E-2,6.800000370E-2,7.189576139E-2
1.237976375E1,1.700000092E-2,1.300000027E-2,6.899999827E-2,7.224264530E-2
1.238950058E1,1.400000043E-2,-8.999999613E-3,7.100000232E-2,7.292462091E-2
1.239923728E1,1.200000010E-2,-2.099999972E-2,4.600000009E-2,5.197114583E-2
1.240897413E1,-6.000000052E-3,7.000000216E-3,2.199999988E-2,2.385372085E-2
1.241871083E1,-2.000000095E-3,4.999999888E-3,4.999999888E-3,7.348469102E-3
1.242844768E1,-2.000000095E-3,-6.000000052E-3,-1.099999994E-2,1.268857753E-2
1.243818430E1,1.000000047E-3,-4.999999888E-3,-3.000000026E-3,5.916079710E-3
1.244792101E1,2.199999988E-2,-2.000000095E-3,2.199999988E-2,3.117691437E-2
1.245765785E1,4.600000009E-2,-1.799999923E-2,4.100000113E-2,6.419501595E-2
1.246739457E1,6.599999964E-2,-1.499999966E-2,5.600000173E-2,8.784645773E-2
1.247713141E1,3.999999911E-2,-1.099999994E-2,6.100000069E-2,7.376991264E-2
1.248686803E1,-1.099999994E-2,8.000000380E-3,4.199999943E-2,4.414747962E-2
1.249660472E1,-2.600000054E-2,3.000000026E-3,4.199999943E-2,4.948737193E-2
1.250634157E1,6.000000052E-3,1.300000027E-2,6.400000304E-2,6.558201275E-2
1.251607827E1,2.000000095E-3,2.999999933E-2,5.999999866E-2,6.711184545E-2
1.252581513E1,4.000000190E-3,2.899999917E-2,4.800000042E-2,5.622277113E-2
1.253555182E1,-7.000000216E-3,2.500000037E-2,8.999999613E-3,2.747726360E-2
1.254528865E1,-8.000000380E-3,5.600000173E-2,-2.600000054E-2,6.225753149E-2
1.255502527E1,-8.999999613E-3,4.300000146E-2,-3.400000185E-2,5.555177985E-2
1.256476196E1,-4.500000179E-2,3.900000080E-2,-1.499999966E-2,6.140847021E-2
1.257449880E1,-3.500000015E-2,1.700000092E-2,1.499999966E-2,4.170131931E-2
1.258423550E1,-3.700000048E-2,9.999999776E-3,5.600000173E-2,6.786015196E-2
1.259397234E1,-6.599999964E-2,3.000000026E-3,1.010000035E-1,1.206896875E-1
1.260370904E1,-5.099999905E-2,-2.500000037E-2,1.270000041E-1,1.391222518E-1
1.261344562E1,-4.500000179E-2,-2.700000070E-2,1.049999967E-1,1.173839832E-1
1.262318247E1,-1.200000010E-2,-5.499999970E-2,6.199999899E-2,8.374365555E-2
1.263291917E1,1.300000027E-2,-4.500000179E-2,1.099999994E-2,4.811444863E-2
1.264265602E1,2.700000070E-2,-3.400000185E-2,-3.900000080E-2,5.836094778E-2
1.265239271E1,3.799999878E-2,-2.400000021E-2,-6.300000101E-2,7.738862995E-2
1.266212955E1,6.400000304E-2,0.000000000E0,-8.200000226E-2,1.040192326E-1
1.267186618E1,6.599999964E-2,-1.200000010E-2,-7.199999690E-2,9.840731431E-2
1.268160288E1,4.199999943E-2,-1.099999994E-2,-5.499999970E-2,7.007139158E-2
1.269133972E1,2.199999988E-2,6.000000052E-3,-2.899999917E-2,3.689173277E-2
1.270107642E1,1.300000027E-2,9.999999776E-3,2.199999988E-2,2.744084542E-2
1.271081326E1,8.000000380E-3,1.600000076E-2,7.100000232E-2,7.321885249E-2
1.272054995E1,8.999999613E-3,-1.000000047E-3,9.200000018E-2,9.244457813E-2
1.273028680E1,-1.000000047E-3,1.799999923E-2,1.049999967E-1,1.065363754E-1
1.274002349E1,-4.999999888E-3,8.999999613E-3,1.000000015E-1,1.005286043E-1
1.274976012E1,-4.000000190E-3,1.499999966E-2,8.299999684E-2,8.443932417E-2
1.275949696E1,-3.299999982E-2,2.700000070E-2,4.699999839E-2,6.345864697E-2
1.276923364E1,-3.200000152E-2,3.799999878E-2,2.199999988E-2,5.433231082E-2
1.277897048E1,-1.300000027E-2,1.400000043E-2,9.999999776E-3,2.156385899E-2
1.278870710E1,-4.999999888E-3,2.099999972E-2,-2.199999988E-2,3.082206972E-2
1.279844402E1,4.999999888E-3,4.000000190E-3,-2.199999988E-2,2.291287837E-2
1.280818063E1,1.999999955E-2,1.700000092E-2,-2.500000037E-2,3.624913836E-2
1.281791732E1,9.999999776E-3,-8.000000380E-3,-6.000000052E-3,1.414213570E-2
1.282765415E1,2.199999988E-2,-2.999999933E-2,7.000000216E-3,3.785498590E-2
1.283739084E1,1.899999939E-2,-2.099999972E-2,8.999999613E-3,2.971531521E-2
1.284712770E1,1.499999966E-2,-8.000000380E-3,2.899999917E-2,3.361547185E-2
1.285686431E1,2.600000054E-2,-4.999999888E-3,3.599999845E-2,4.468780499E-2
1.286660101E1,1.099999994E-2,8.000000380E-3,2.400000021E-2,2.758622872E-2
1.287633786E1,-7.000000216E-3,7.000000216E-3,3.400000185E-2,3.541186428E-2
1.288607456E1,-6.000000052E-3,1.099999994E-2,2.500000037E-2,2.796426323E-2
1.289581140E1,-1.099999994E-2,-1.000000047E-3,4.199999943E-2,4.342810094E-2
1.290554810E1,2.000000095E-3,-1.899999939E-2,5.900000036E-2,6.201612709E-2
1.291528496E1,7.000000216E-3,-7.000000216E-3,3.799999878E-2,3.926830673E-2
1.292502166E1,3.000000026E-3,-1.000000047E-3,3.700000048E-2,3.713488973E-2
1.293475827E1,7.000000216E-3,-8.000000380E-3,3.400000185E-2,3.562302815E-2
1.294449511E1,1.400000043E-2,-7.000000216E-3,2.600000054E-2,3.034798252E-2
1.295423181E1,1.099999994E-2,2.000000095E-3,-6.000000052E-3,1.268857753E-2
1.296396842E1,9.999999776E-3,1.499999966E-2,1.099999994E-2,2.111871171E-2
1.297370525E1,7.000000216E-3,1.000000047E-3,1.099999994E-2,1.307669690E-2
1.298344195E1,1.300000027E-2,3.000000026E-3,8.000000380E-3,1.555634961E-2
1.299317878E1,8.000000380E-3,1.600000076E-2,9.999999776E-3,2.049390216E-2
1.300291548E1,4.000000190E-3,2.600000054E-2,3.400000185E-2,4.298837232E-2
1.301265231E1,-1.200000010E-2,1.999999955E-2,4.500000179E-2,5.068530503E-2
1.302238901E1,-1.000000047E-3,1.099999994E-2,5.900000036E-2,6.002499514E-2
1.303212585E1,-1.499999966E-2,2.000000095E-3,4.899999872E-2,5.128352430E-2
1.304186246E1,-4.500000179E-2,4.999999888E-3,5.400000140E-2,7.046985392E-2
1.305159915E1,-5.400000140E-2,1.999999955E-2,6.499999762E-2,8.683893034E-2
1.306133600E1,-2.600000054E-2,3.000000026E-3,5.600000173E-2,6.181423963E-2
1.307107269E1,-7.000000216E-3,4.999999888E-3,1.700000092E-2,1.905255976E-2
1.308080953E1,-8.999999613E-3,1.499999966E-2,-7.000000216E-3,1.884144331E-2
1.309054614E1,-4.000000190E-3,1.000000047E-3,-2.000000095E-3,4.582575913E-3
1.310028306E1,2.000000095E-3,-7.000000216E-3,-1.700000092E-2,1.849324295E-2
1.311001971E1,1.400000043E-2,9.999999776E-3,-2.199999988E-2,2.792848013E-2
1.311975640E1,1.899999939E-2,1.000000047E-3,-4.999999888E-3,1.967231496E-2
1.312949325E1,2.400000021E-2,-3.000000026E-3,3.700000048E-2,4.420407272E-2
1.313922994E1,3.700000048E-2,-6.000000052E-3,7.699999958E-2,8.563877610E-2
1.314896655E1,5.299999937E-2,-2.400000021E-2,9.399999678E-2,1.105486288E-1
1.315870340E1,7.500000298E-2,-1.600000076E-2,8.600000292E-2,1.152258694E-1
1.316844009E1,6.599999964E-2,1.000000047E-3,7.599999756E-2,1.006628014E-1
1.317817694E1,2.199999988E-2,3.000000026E-3,9.000000358E-2,9.269843925E-2
1.318791363E1,-1.000000047E-3,8.000000380E-3,9.200000018E-2,9.235258545E-2
1.319765047E1,1.000000047E-3,1.700000092E-2,8.100000024E-2,8.277076821E-2
1.320738717E1,-1.700000092E-2,3.599999845E-2,5.200000107E-2,6.549045756E-2
1.321712402E1,6.000000052E-3,4.399999976E-2,2.700000070E-2,5.197114601E-2
1.322686063E1,0.000000000E0,4.300000146E-2,-9.999999776E-3,4.414748148E-2
1.323659734E1,-1.799999923E-2,3.400000185E-2,-6.199999899E-2,7.296574520E-2
1.324633418E1,-1.799999923E-2,5.099999905E-2,-7.400000095E-2,9.165696927E-2
1.325607080E1,-2.700000070E-2,3.299999982E-2,-5.400000140E-2,6.880407094E-2
1.326580772E1,-8.000000380E-3,1.300000027E-2,-6.000000052E-3,1.640121988E-2
1.327554435E1,-2.000000095E-3,-7.000000216E-3,5.600000173E-2,5.647123336E-2
1.328528104E1,-1.099999994E-2,-2.500000037E-2,9.899999946E-2,1.026985877E-1
1.329501790E1,-2.000000095E-3,-3.200000152E-2,1.230000034E-1,1.271101921E-1
1.330475459E1,8.000000380E-3,-3.400000185E-2,1.110000014E-1,1.163658045E-1
1.331449143E1,-4.999999888E-3,-1.300000027E-2,7.900000364E-2,8.021845536E-2
1.332422813E1,-1.000000047E-3,-8.999999613E-3,3.599999845E-2,3.712142079E-2
1.333396474E1,6.000000052E-3,-3.000000026E-3,7.000000216E-3,9.695359911E-3
1.334370158E1,4.000000190E-3,8.000000380E-3,-2.099999972E-2,2.282542433E-2
1.335343826E1,0.000000000E0,9.999999776E-3,-1.700000092E-2,1.972308361E-2
1.336317511E1,3.000000026E-3,1.600000076E-2,-3.000000026E-3,1.655294610E-2
1.337291183E1,8.000000380E-3,0.000000000E0,-1.600000076E-2,1.788854467E-2
1.338264845E1,-1.200000010E-2,9.999999776E-3,-3.099999949E-2,3.471310943E-2
1.339238539E1,-3.599999845E-2,2.899999917E-2,-2.999999933E-2,5.510898112E-2
1.340212201E1,-3.099999949E-2,2.199999988E-2,7.000000216E-3,3.865229575E-2
1.341185885E1,1.400000043E-2,1.400000043E-2,3.200000152E-2,3.762977706E-2
1.342159554E1,2.899999917E-2,8.000000380E-3,7.000000030E-2,7.619055059E-2
1.343133239E1,1.600000076E-2,-6.000000052E-3,7.900000364E-2,8.082697940E-2
1.344106901E1,-2.000000095E-3,-2.400000021E-2,9.399999678E-2,9.703607270E-2
1.345080571E1,-1.300000027E-2,-1.600000076E-2,8.399999887E-2,8.649277335E-2
1.346054254E1,-2.899999917E-2,-4.199999943E-2,5.499999970E-2,7.503332507E-2
1.347027924E1,-3.700000048E-2,-1.499999966E-2,2.500000037E-2,4.710626332E-2
1.348001609E1,-2.400000021E-2,-1.300000027E-2,-7.000000216E-3,2.817800596E-2
1.348975278E1,-4.999999888E-3,8.000000380E-3,-1.600000076E-2,1.857417641E-2
1.349948962E1,1.700000092E-2,2.300000004E-2,-1.600000076E-2,3.277194010E-2
1.350922623E1,0.000000000E0,3.200000152E-2,4.999999888E-3,3.238827097E-2
1.351896291E1,4.000000190E-3,2.099999972E-2,1.400000043E-2,2.555386471E-2
1.352869975E1,2.199999988E-2,2.099999972E-2,4.500000179E-2,5.431390378E-2
1.353843642E1,2.899999917E-2,9.999999776E-3,6.899999827E-2,7.551158659E-2
1.354817305E1,2.199999988E-2,8.000000380E-3,8.500000089E-2,8.816461962E-2
1.355790989E1,1.000000047E-3,-9.999999776E-3,8.200000226E-2,8.261356043E-2
1.356764682E1,-9.999999776E-3,7.000000216E-3,9.099999815E-2,9.181502961E-2
1.357738344E1,1.700000092E-2,-1.400000043E-2,6.199999899E-2,6.579513597E-2
1.358712013E1,-2.000000095E-3,1.000000047E-3,5.700000003E-2,5.704384282E-2
1.359685698E1,1.000000047E-3,4.999999888E-3,2.800000086E-2,2.846049977E-2
1.360659369E1,-1.499999966E-2,3.000000026E-3,4.000000190E-3,1.581138804E-2
1.361633030E1,-2.000000095E-3,7.000000216E-3,-3.599999845E-2,3.672873387E-2
1.362606716E1,1.300000027E-2,1.499999966E-2,-4.100000113E-2,4.555216888E-2
1.363580386E1,3.299999982E-2,2.199999988E-2,-2.500000037E-2,4.688283270E-2
1.364554072E1,2.700000070E-2,8.000000380E-3,-7.000000216E-3,2.901723707E-2
1.365527741E1,4.300000146E-2,-1.400000043E-2,1.400000043E-2,4.733920310E-2
1.366501423E1,1.899999939E-2,-7.000000216E-3,3.799999878E-2,4.305809897E-2
1.367475092E1,1.499999966E-2,3.000000026E-3,5.200000107E-2,5.420332187E-2
1.368448751E1,7.000000216E-3,-1.000000047E-3,8.100000024E-2,8.130805644E-2
1.369422435E1,-9.999999776E-3,-6.000000052E-3,1.049999967E-1,1.056456308E-1
1.370396103E1,-1.600000076E-2,-2.899999917E-2,7.500000298E-2,8.198780655E-2
1.371369762E1,-3.299999982E-2,-2.700000070E-2,5.999999866E-2,7.360706396E-2
1.372343446E1,-1.300000027E-2,-4.000000190E-3,3.799999878E-2,4.036087110E-2
1.373317137E1,1.300000027E-2,-8.999999613E-3,2.600000054E-2,3.043024857E-2
1.374290806E1,3.000000026E-3,3.000000026E-3,1.899999939E-2,1.946792175E-2
1.375264469E1,3.000000026E-3,1.899999939E-2,-1.000000047E-3,1.926135969E-2
1.376238153E1,4.000000190E-3,0.000000000E0,-1.899999939E-2,1.941648728E-2
1.377211822E1,7.000000216E-3,-8.999999613E-3,-3.799999878E-2,3.967366763E-2
1.378185484E1,-1.899999939E-2,0.000000000E0,-5.499999970E-2,5.818934562E-2
1.379159167E1,-6.000000052E-3,-7.000000216E-3,-3.599999845E-2,3.716180690E-2
1.380132837E1,9.999999776E-3,-1.899999939E-2,-1.000000047E-3,2.149418462E-2
1.381106520E1,4.000000190E-3,-1.300000027E-2,3.799999878E-2,4.036087110E-2
1.382080189E1,-2.099999972E-2,-1.600000076E-2,8.699999750E-2,9.091754273E-2
1.383053875E1,-1.499999966E-2,-3.200000152E-2,1.059999987E-1,1.117362959E-1
1.384027545E1,-3.099999949E-2,-3.500000015E-2,7.800000161E-2,9.093954162E-2
1.385001205E1,-6.300000101E-2,-1.400000043E-2,3.299999982E-2,7.248448198E-2
1.385974890E1,-8.399999887E-2,1.999999955E-2,-7.000000216E-3,8.663140190E-2
1.386948559E1,-8.600000292E-2,6.100000069E-2,-3.999999911E-2,1.127696791E-1
1.387922243E1,-7.100000232E-2,6.599999964E-2,-6.800000370E-2,1.184103069E-1
1.388895903E1,-3.400000185E-2,5.400000140E-2,-3.799999878E-2,7.426977975E-2
1.389869572E1,7.000000216E-3,6.499999762E-2,-1.000000047E-3,6.538348181E-2
1.390843255E1,4.899999872E-2,7.999999821E-2,3.000000026E-3,9.386159805E-2
1.391816925E1,6.199999899E-2,7.999999821E-2,-4.300000146E-2,1.099681759E-1
1.392790608E1,7.500000298E-2,7.900000364E-2,-5.900000036E-2,1.238830136E-1
1.393764277E1,8.699999750E-2,6.800000370E-2,-4.500000179E-2,1.192392562E-1
1.394737962E1,6.499999762E-2,5.099999905E-2,-8.999999613E-3,8.310836050E-2
1.395711624E1,6.499999762E-2,2.800000086E-2,6.400000304E-2,9.542012433E-2
1.396685298E1,6.899999827E-2,0.000000000E0,8.699999750E-2,1.110405301E-1
1.397658982E1,3.400000185E-2,-1.099999994E-2,1.049999967E-1,1.109143789E-1
1.398632652E1,1.999999955E-2,-1.099999994E-2,1.040000021E-1,1.064753513E-1
1.399606337E1,7.000000216E-3,0.000000000E0,9.499999881E-2,9.525754446E-2
1.400580006E1,2.500000037E-2,-6.000000052E-3,8.299999684E-2,8.689073308E-2
1.401553668E1,6.100000069E-2,-1.099999994E-2,6.100000069E-2,8.696551136E-2
1.402527351E1,6.300000101E-2,-1.400000043E-2,4.899999872E-2,8.103085841E-2
1.403501022E1,8.200000226E-2,-1.099999994E-2,1.999999955E-2,8.511756782E-2
1.404474706E1,8.600000292E-2,-1.099999994E-2,-4.000000190E-3,8.679285974E-2
1.405448368E1,7.500000298E-2,-1.899999939E-2,-1.600000076E-2,7.900633170E-2
1.406422037E1,7.000000030E-2,-1.099999994E-2,1.600000076E-2,7.264296294E-2
1.407395721E1,2.500000037E-2,0.000000000E0,7.000000030E-2,7.433034414E-2
1.408369392E1,1.400000043E-2,-2.199999988E-2,1.330000013E-1,1.355322853E-1
1.409343076E1,-2.000000095E-3,-4.600000009E-2,1.570000052E-1,1.636123518E-1
1.410316747E1,-4.399999976E-2,-8.200000226E-2,2.049999982E-1,2.251332930E-1
1.411290431E1,-5.900000036E-2,-7.699999958E-2,2.049999982E-1,2.267928554E-1
1.412264094E1,-1.169999987E-1,-7.599999756E-2,1.620000005E-1,2.137966311E-1
1.413237764E1,-1.780000031E-1,-9.000000358E-2,4.899999872E-2,2.053898771E-1
1.414211447E1,-2.000000030E-1,-8.100000024E-2,-7.400000095E-2,2.281162015E-1
1.415185116E1,-1.350000054E-1,-6.400000304E-2,-1.270000041E-1,1.960867228E-1
1.416158777E1,-9.399999678E-2,-1.700000092E-2,-1.289999932E-1,1.605179045E-1
1.417132469E1,-7.100000232E-2,4.199999943E-2,-1.000000015E-1,1.296341027E-1
1.418106132E1,-6.100000069E-2,7.800000161E-2,-4.500000179E-2,1.087658057E-1
1.419079818E1,-5.400000140E-2,7.199999690E-2,1.400000043E-2,9.108237874E-2
1.420053489E1,-4.899999872E-2,9.200000018E-2,8.600000292E-2,1.351332691E-1
1.421027173E1,-2.899999917E-2,8.799999952E-2,1.650000066E-1,1.892353086E-1
1.422000833E1,-2.199999988E-2,7.299999893E-2,2.129999995E-1,2.262343909E-1
1.422974502E1,-3.299999982E-2,8.799999952E-2,2.109999955E-1,2.309848436E-1
1.423948183E1,2.600000054E-2,6.899999827E-2,1.700000018E-1,1.853024565E-1
1.424921853E1,7.199999690E-2,2.800000086E-2,1.120000035E-1,1.360588122E-1
1.425895535E1,1.010000035E-1,8.000000380E-3,5.700000003E-2,1.162497343E-1
1.426869205E1,1.289999932E-1,-3.000000026E-3,3.000000026E-3,1.290697418E-1
1.427842888E1,1.400000006E-1,-1.600000076E-2,-3.799999878E-2,1.459451955E-1
1.428816550E1,1.239999980E-1,-5.600000173E-2,-1.239999980E-1,1.840869338E-1
1.429790221E1,1.309999973E-1,-5.299999937E-2,-1.550000012E-1,2.097498500E-1
1.430763906E1,8.799999952E-2,-3.200000152E-2,-1.640000045E-1,1.888491501E-1
1.431737568E1,5.900000036E-2,-3.200000152E-2,-1.449999958E-1,1.597810969E-1
1.432711237E1,1.700000092E-2,-2.199999988E-2,-1.120000035E-1,1.153993102E-1
1.433684930E1,-4.199999943E-2,-6.000000052E-3,-7.199999690E-2,8.357032671E-2
1.434658592E1,-6.899999827E-2,-8.000000380E-3,0.000000000E0,6.946221827E-2
1.435632279E1,-6.800000370E-2,1.899999939E-2,5.499999970E-2,8.949860584E-2
1.436605948E1,-7.800000161E-2,3.999999911E-2,6.599999964E-2,1.097269344E-1
1.437579632E1,-6.300000101E-2,5.700000003E-2,6.100000069E-2,1.045896755E-1
1.438553295E1,-4.600000009E-2,7.299999893E-2,7.400000095E-2,1.136705766E-1
1.439526964E1,-3.700000048E-2,5.200000107E-2,5.000000075E-2,8.107404160E-2
1.440500647E1,-2.099999972E-2,3.900000080E-2,5.799999833E-2,7.297944818E-2
1.441474316E1,-2.300000004E-2,4.500000179E-2,6.300000101E-2,8.076509327E-2
1.442447978E1,-4.800000042E-2,3.999999911E-2,4.600000009E-2,7.758865882E-2
1.443421670E1,-3.900000080E-2,3.299999982E-2,2.700000070E-2,5.778408162E-2
1.444395332E1,-2.400000021E-2,-2.099999972E-2,2.600000054E-2,4.114608154E-2
1.445369017E1,-9.999999776E-3,-1.499999966E-2,7.000000216E-3,1.933907931E-2
1.446342686E1,-3.999999911E-2,-3.000000026E-3,-4.000000190E-3,4.031128788E-2
1.447316371E1,-4.699999839E-2,-1.000000047E-3,-1.600000076E-2,4.965883479E-2
1.448290030E1,-2.800000086E-2,-1.600000076E-2,-4.300000146E-2,5.374942045E-2
1.449263699E1,-1.999999955E-2,-1.099999994E-2,-3.799999878E-2,4.432831925E-2
1.450237384E1,-2.000000095E-3,-1.000000047E-3,-4.399999976E-2,4.405678131E-2
1.451211054E1,1.499999966E-2,-2.199999988E-2,-4.000000190E-3,2.692582378E-2
1.452184739E1,1.200000010E-2,-2.199999988E-2,2.300000004E-2,3.401470269E-2
1.453158400E1,2.700000070E-2,2.000000095E-3,8.000000380E-3,2.823118921E-2
1.454132071E1,2.999999933E-2,1.799999923E-2,1.000000047E-3,3.499999903E-2
1.455105756E1,8.999999613E-3,2.400000021E-2,-3.000000026E-3,2.580697586E-2
1.456079426E1,-7.000000216E-3,2.700000070E-2,1.099999994E-2,2.998332936E-2
1.457053110E1,2.800000086E-2,9.999999776E-3,2.300000004E-2,3.758989287E-2
1.458026780E1,2.199999988E-2,9.999999776E-3,3.700000048E-2,4.419275988E-2
1.459000442E1,1.200000010E-2,3.299999982E-2,4.199999943E-2,5.474486225E-2
1.459974124E1,9.999999776E-3,2.500000037E-2,4.500000179E-2,5.244044408E-2
1.460947793E1,2.300000004E-2,3.999999911E-2,3.299999982E-2,5.672741770E-2
1.461921477E1,2.500000037E-2,3.999999911E-2,1.999999955E-2,5.123475314E-2
1.462895146E1,2.800000086E-2,2.899999917E-2,-1.099999994E-2,4.178516482E-2
1.463868805E1,1.200000010E-2,9.999999776E-3,-9.999999776E-3,1.854723682E-2
1.464842490E1,3.200000152E-2,4.000000190E-3,-4.999999888E-3,3.263433924E-2
1.465816160E1,1.700000092E-2,-2.600000054E-2,1.300000027E-2,3.367491747E-2
1.466789843E1,2.000000095E-3,-9.999999776E-3,9.999999776E-3,1.428285656E-2
1.467763512E1,-1.799999923E-2,-2.500000037E-2,3.900000080E-2,4.969909510E-2
1.468737197E1,-3.099999949E-2,-4.199999943E-2,3.900000080E-2,6.516133811E-2
1.469710859E1,-3.900000080E-2,-5.799999833E-2,6.300000101E-2,9.409569595E-2
1.470684530E1,-7.599999756E-2,-6.100000069E-2,7.999999821E-2,1.260833035E-1
1.471658215E1,-1.019999981E-1,-5.700000003E-2,7.900000364E-2,1.410460924E-1
1.472631874E1,-8.200000226E-2,-3.900000080E-2,8.600000292E-2,1.250639874E-1
1.473605566E1,-5.700000003E-2,-3.799999878E-2,6.599999964E-2,9.512623121E-2
1.474579236E1,-4.500000179E-2,-1.400000043E-2,4.199999943E-2,6.312685740E-2
1.475552897E1,-3.900000080E-2,3.000000026E-3,1.899999939E-2,4.348563027E-2
1.476526584E1,-3.200000152E-2,7.000000216E-3,-3.299999982E-2,4.649731270E-2
1.477500254E1,-1.899999939E-2,1.899999939E-2,-5.799999833E-2,6.392182538E-2
1.478473940E1,1.400000043E-2,-8.999999613E-3,-6.499999762E-2,6.709694252E-2
1.479447601E1,1.899999939E-2,-1.000000047E-3,-5.700000003E-2,6.009159659E-2
1.480421269E1,1.300000027E-2,2.000000095E-3,-4.999999888E-3,1.407124750E-2
1.481394954E1,2.800000086E-2,-1.600000076E-2,3.000000026E-3,3.238827061E-2
1.482368624E1,5.200000107E-2,-1.200000010E-2,3.099999949E-2,6.171709717E-2
1.483342308E1,2.999999933E-2,0.000000000E0,4.500000179E-2,5.408327025E-2
1.484315978E1,2.600000054E-2,9.999999776E-3,6.599999964E-2,7.163797859E-2
1.485289641E1,4.500000179E-2,4.000000190E-3,7.699999958E-2,8.927485703E-2
1.486263325E1,6.400000304E-2,-8.000000380E-3,1.010000035E-1,1.198373944E-1
1.487236995E1,7.699999958E-2,1.499999966E-2,1.070000008E-1,1.326762982E-1
1.488210656E1,9.799999744E-2,6.000000052E-3,1.070000008E-1,1.452205208E-1
1.489184344E1,8.699999750E-2,-1.000000047E-3,9.200000018E-2,1.266254303E-1
1.490158014E1,7.100000232E-2,0.000000000E0,8.500000089E-2,1.107519773E-1
1.491131698E1,5.499999970E-2,3.000000026E-3,7.500000298E-2,9.305375014E-2
1.492105368E1,3.500000015E-2,3.000000026E-3,5.799999833E-2,6.780855268E-2
1.493079052E1,3.400000185E-2,0.000000000E0,3.900000080E-2,5.173973510E-2
1.494052722E1,-7.000000216E-3,-2.099999972E-2,1.700000092E-2,2.791057188E-2
1.495026382E1,-3.700000048E-2,-2.999999933E-2,0.000000000E0,4.763402140E-2
1.496000066E1,-3.799999878E-2,-2.300000004E-2,-7.000000216E-3,4.496665334E-2
1.496973736E1,-7.100000232E-2,-2.700000070E-2,-3.400000185E-2,8.322259605E-2
1.497947421E1,-7.100000232E-2,-3.299999982E-2,-5.000000075E-2,9.289779541E-2
1.498921082E1,-6.400000304E-2,-3.799999878E-2,-4.199999943E-2,8.546344393E-2
1.499894775E1,-5.900000036E-2,-1.999999955E-2,-2.500000037E-2,6.712674611E-2
1.500868435E1,-2.600000054E-2,4.000000190E-3,2.000000095E-3,2.638181248E-2
1.501842105E1,7.000000216E-3,8.000000380E-3,2.999999933E-2,3.182766044E-2
1.502815789E1,2.000000095E-3,1.600000076E-2,5.000000075E-2,5.253570309E-2
1.503789458E1,1.600000076E-2,5.099999905E-2,7.100000232E-2,8.887069403E-2
1.504763121E1,9.999999776E-3,5.700000003E-2,8.399999887E-2,1.020049009E-1
1.505736805E1,3.400000185E-2,4.600000009E-2,8.799999952E-2,1.049571343E-1
1.506710472E1,3.999999911E-2,3.799999878E-2,1.000000015E-1,1.142103329E-1
1.507684156E1,3.099999949E-2,1.200000010E-2,9.499999881E-2,1.006478999E-1
1.508657824E1,1.400000043E-2,8.000000380E-3,9.899999946E-2,1.003045358E-1
1.509631509E1,2.999999933E-2,-6.000000052E-3,7.299999893E-2,7.915175174E-2
1.510605171E1,3.500000015E-2,-2.000000095E-3,3.999999911E-2,5.318834402E-2
1.511578840E1,2.600000054E-2,1.300000027E-2,1.099999994E-2,3.108054108E-2
1.512552524E1,2.899999917E-2,6.000000052E-3,-3.299999982E-2,4.433959788E-2
1.513526194E1,2.899999917E-2,3.000000026E-3,-5.200000107E-2,5.961543477E-2
1.514499879E1,2.000000095E-3,-9.999999776E-3,-5.400000140E-2,5.495452800E-2
1.515473549E1,0.000000000E0,-4.999999888E-3,-5.700000003E-2,5.721887802E-2
1.516447210E1,-3.700000048E-2,2.000000095E-3,-6.199999899E-2,7.222880250E-2
1.517420894E1,-4.500000179E-2,-9.999999776E-3,-3.799999878E-2,5.974110866E-2
1.518394560E1,-5.499999970E-2,-7.000000216E-3,-1.700000092E-2,5.799137868E-2
1.519368222E1,-7.699999958E-2,2.000000095E-3,1.499999966E-2,7.847292480E-2
1.520341905E1,-6.499999762E-2,1.000000047E-3,6.899999827E-2,9.479978614E-2
1.521315574E1,-2.600000054E-2,4.999999888E-3,1.049999967E-1,1.082866536E-1
1.522289262E1,-3.000000026E-3,-1.300000027E-2,1.059999987E-1,1.068363222E-1
1.523262932E1,1.999999955E-2,6.000000052E-3,1.010000035E-1,1.031358361E-1
1.524236619E1,0.000000000E0,1.499999966E-2,9.499999881E-2,9.617691908E-2
1.525210281E1,-4.000000190E-3,2.899999917E-2,8.500000089E-2,8.989994497E-2
1.526183951E1,0.000000000E0,2.500000037E-2,7.900000364E-2,8.286133352E-2
1.527157636E1,2.500000037E-2,4.999999888E-3,5.700000003E-2,6.244197323E-2
1.528131306E1,3.299999982E-2,4.000000190E-3,3.900000080E-2,5.124451241E-2
1.529104990E1,3.099999949E-2,1.099999994E-2,1.499999966E-2,3.615245437E-2
1.530078658E1,1.400000043E-2,1.600000076E-2,-2.099999972E-2,2.988310601E-2
1.531052323E1,1.099999994E-2,1.499999966E-2,-3.500000015E-2,3.963584235E-2
1.532026006E1,1.400000043E-2,0.000000000E0,-2.700000070E-2,3.041381347E-2
1.532999676E1,-1.400000043E-2,8.000000380E-3,-1.000000047E-3,1.615549499E-2
1.533973360E1,-4.000000190E-3,3.000000026E-3,2.600000054E-2,2.647640515E-2
1.534947030E1,0.000000000E0,-2.400000021E-2,4.800000042E-2,5.366563193E-2
1.535920690E1,-4.999999888E-3,-1.600000076E-2,4.399999976E-2,4.708502949E-2
1.536894374E1,-3.799999878E-2,0.000000000E0,4.199999943E-2,5.663920779E-2
1.537868043E1,-4.199999943E-2,-4.999999888E-3,4.300000146E-2,6.031583604E-2
1.538841727E1,-5.299999937E-2,0.000000000E0,5.099999905E-2,7.355270108E-2
1.539815396E1,-6.499999762E-2,-6.000000052E-3,6.199999899E-2,9.002777108E-2
1.540789058E1,-6.300000101E-2,-1.799999923E-2,6.499999762E-2,9.229301051E-2
1.541762742E1,-3.299999982E-2,-3.099999949E-2,5.000000075E-2,6.745368805E-2
1.542736412E1,-2.199999988E-2,-3.700000048E-2,3.299999982E-2,5.424020666E-2
1.543710072E1,-1.200000010E-2,-1.499999966E-2,1.000000047E-3,1.923538387E-2
1.544683764E1,2.700000070E-2,-7.000000216E-3,-2.600000054E-2,3.813135283E-2
1.545657447E1,3.799999878E-2,-3.000000026E-3,-6.199999899E-2,7.278049039E-2
1.546631109E1,4.600000009E-2,8.000000380E-3,-8.299999684E-2,9.523129470E-2
1.547604782E1,3.700000048E-2,1.999999955E-2,-1.089999974E-1,1.168332121E-1
1.548578466E1,3.900000080E-2,1.999999955E-2,-1.019999981E-1,1.110180150E-1
1.549552129E1,2.199999988E-2,2.000000095E-3,-1.059999987E-1,1.082774202E-1
1.550525822E1,4.000000190E-3,1.600000076E-2,-8.100000024E-2,8.266196262E-2
1.551499484E1,-1.899999939E-2,1.700000092E-2,-1.799999923E-2,3.120897275E-2
1.552473148E1,-5.799999833E-2,1.200000010E-2,3.099999949E-2,6.685057799E-2
1.553446833E1,-8.900000155E-2,2.000000095E-3,1.159999967E-1,1.462224316E-1
1.554420502E1,-1.299999952E-1,-4.100000113E-2,1.870000064E-1,2.314087320E-1
