"Time (s)","Linear Acceleration x (m/s^2)","Linear Acceleration y (m/s^2)","Linear Acceleration z (m/s^2)","Absolute acceleration (m/s^2)"
4.814790300E-2,7.299999893E-2,-9.300000221E-2,-2.060000002E-1,2.375163160E-1
5.788460900E-2,-1.300000027E-2,1.700000092E-2,4.100000113E-2,4.624932574E-2
6.762148300E-2,-8.200000226E-2,1.099999994E-1,2.759999931E-1,3.082206943E-1
7.735809900E-2,2.199999988E-2,-5.900000036E-2,4.720000029E-1,4.761816909E-1
8.709483900E-2,-8.100000024E-2,-1.250000000E-1,6.129999757E-1,6.308367223E-1
9.683168300E-2,-2.619999945E-1,-1.019999981E-1,7.110000253E-1,7.645711430E-1
1.065683290E-1,-3.750000000E-1,-9.099999815E-2,8.050000072E-1,8.927099256E-1
1.163050200E-1,-4.110000134E-1,-9.899999946E-2,8.460000157E-1,9.457473434E-1
1.260418990E-1,-4.090000093E-1,-1.299999952E-1,8.050000072E-1,9.122532641E-1
1.357785930E-1,-3.930000067E-1,-1.640000045E-1,8.489999771E-1,9.498136490E-1
1.455152180E-1,-2.960000038E-1,-1.220000014E-1,7.969999909E-1,8.588998709E-1
1.552520620E-1,-1.850000024E-1,-1.410000026E-1,5.939999819E-1,6.379200421E-1
1.649887660E-1,-6.800000370E-2,-1.679999977E-1,3.910000026E-1,4.309628775E-1
1.747253820E-1,-4.100000113E-2,-1.860000044E-1,2.099999934E-1,2.835083755E-1
1.844622500E-1,-6.000000052E-3,-1.959999949E-1,8.100000024E-2,2.121626688E-1
1.941989440E-1,3.700000048E-2,-2.099999934E-1,-5.600000173E-2,2.204654111E-1
2.039355840E-1,1.150000021E-1,-2.540000081E-1,-2.060000002E-1,3.466655516E-1
2.136724130E-1,1.749999970E-1,-3.330000043E-1,-3.939999938E-1,5.447476452E-1
2.234090300E-1,9.099999815E-2,-3.160000145E-1,-3.869999945E-1,5.078444689E-1
2.331457390E-1,8.699999750E-2,-3.449999988E-1,-2.910000086E-1,4.596466074E-1
2.428825860E-1,7.299999893E-2,-3.479999900E-1,-8.299999684E-2,3.651328421E-1
2.526191890E-1,3.799999878E-2,-3.190000057E-1,-1.499999966E-2,3.216053537E-1
2.623558790E-1,3.200000152E-2,-2.939999998E-1,8.699999750E-2,3.082677400E-1
2.720927350E-1,4.399999976E-2,-2.520000041E-1,3.100000024E-1,4.019203945E-1
2.818293520E-1,1.000000015E-1,-2.779999971E-1,6.299999952E-1,6.958333081E-1
2.915660420E-1,1.239999980E-1,-3.190000057E-1,2.450000048E-1,4.209061718E-1
3.013026600E-1,1.260000020E-1,-2.569999993E-1,-7.900000364E-2,2.969276018E-1
3.110394940E-1,6.300000101E-2,-1.319999993E-1,1.400000043E-2,1.469319569E-1
3.207761880E-1,6.599999964E-2,-9.099999815E-2,1.669999957E-1,2.013107006E-1
3.305130270E-1,2.899999917E-2,-1.319999993E-1,1.860000044E-1,2.299152048E-1
3.402496450E-1,7.800000161E-2,-1.780000031E-1,1.870000064E-1,2.696979862E-1
3.499863400E-1,1.159999967E-1,-1.770000011E-1,1.669999957E-1,2.695811532E-1
3.597229580E-1,1.379999965E-1,-1.909999996E-1,1.070000008E-1,2.587933521E-1
3.694598020E-1,1.759999990E-1,-1.609999985E-1,1.350000054E-1,2.740839299E-1
3.791964870E-1,1.720000058E-1,-1.430000067E-1,1.420000046E-1,2.649471744E-1
3.889330680E-1,2.010000050E-1,-1.500000060E-1,4.399999976E-2,2.546311131E-1
3.986699130E-1,1.870000064E-1,-1.749999970E-1,-9.200000018E-2,2.721359980E-1
4.084066360E-1,1.650000066E-1,-1.679999977E-1,-1.829999983E-1,2.982247488E-1
4.181434800E-1,1.159999967E-1,-1.899999976E-1,-2.360000014E-1,3.244256448E-1
4.278800790E-1,2.980000079E-1,-2.070000023E-1,-1.710000038E-1,4.011159520E-1
4.376167690E-1,1.218999982E0,-1.089999974E-1,2.310000062E-1,1.245472986E0
4.473534000E-1,1.044000030E0,-7.000000216E-3,9.700000286E-2,1.048519939E0
4.570902440E-1,-1.879999936E-1,2.249999940E-1,-6.300000101E-2,2.998966406E-1
4.668268810E-1,-5.830000043E-1,2.070000023E-1,-3.269999921E-1,6.997621030E-1
4.765635710E-1,-5.529999733E-1,-1.289999932E-1,-5.960000157E-1,8.232047057E-1
4.863004170E-1,-3.039999902E-1,-3.810000122E-1,-8.209999800E-1,9.547868717E-1
4.960371120E-1,-1.630000025E-1,-3.610000014E-1,-7.450000048E-1,8.437505609E-1
5.057737270E-1,-1.729999930E-1,-2.370000035E-1,-7.400000095E-1,7.960515142E-1
5.155105710E-1,-3.149999976E-1,-1.439999938E-1,-7.089999914E-1,7.890766658E-1
5.252472660E-1,-4.079999924E-1,-1.550000012E-1,-5.590000153E-1,7.092037868E-1
5.349838810E-1,-3.619999886E-1,-2.899999917E-1,-3.880000114E-1,6.047214200E-1
5.447207200E-1,-3.149999976E-1,-3.319999874E-1,-2.890000045E-1,5.412670253E-1
5.544573380E-1,-2.800000012E-1,-3.100000024E-1,-2.119999975E-1,4.684485042E-1
5.641940430E-1,-1.990000010E-1,-3.529999852E-1,-6.499999762E-2,4.104083206E-1
5.739308840E-1,-5.299999937E-2,-3.689999878E-1,2.999999933E-2,3.739919664E-1
5.836675020E-1,-8.999999613E-3,-3.210000098E-1,7.599999756E-2,3.299969786E-1
5.934041820E-1,2.899999917E-2,-2.109999955E-1,9.499999881E-2,2.332102009E-1
6.031410280E-1,1.260000020E-1,-1.159999967E-1,6.199999899E-2,1.821428001E-1
6.128776400E-1,2.060000002E-1,-7.100000232E-2,1.410000026E-1,2.595342004E-1
6.226143310E-1,2.770000100E-1,-5.400000140E-2,1.350000054E-1,3.128418245E-1
6.323511680E-1,2.879999876E-1,-7.800000161E-2,8.200000226E-2,3.094381901E-1
6.420877850E-1,2.730000019E-1,-6.899999827E-2,2.800000086E-2,2.829734985E-1
6.518244900E-1,2.520000041E-1,6.000000052E-3,-7.699999958E-2,2.635697289E-1
6.615613360E-1,2.549999952E-1,3.599999845E-2,-1.369999945E-1,2.917018957E-1
6.712979820E-1,2.319999933E-1,3.700000048E-2,-7.199999690E-2,2.457173101E-1
6.810346730E-1,1.400000006E-1,-3.000000026E-3,1.899999939E-2,1.413152509E-1
6.907712610E-1,4.100000113E-2,-9.200000018E-2,5.900000036E-2,1.167304595E-1
7.005081340E-1,-1.289999932E-1,-2.090000063E-1,1.909999996E-1,3.111318061E-1
7.102448130E-1,-1.959999949E-1,-2.910000086E-1,3.089999855E-1,4.675232550E-1
7.199814290E-1,-1.689999998E-1,-3.230000138E-1,2.469999939E-1,4.403396483E-1
7.297182730E-1,-2.080000043E-1,-3.269999921E-1,1.500000060E-1,4.155634710E-1
7.394549670E-1,-2.179999948E-1,-2.919999957E-1,1.609999985E-1,3.983829749E-1
7.491915930E-1,-1.630000025E-1,-2.409999967E-1,1.260000020E-1,3.170583538E-1
7.589284370E-1,-6.700000167E-2,-2.039999962E-1,6.800000370E-2,2.252309907E-1
7.686651590E-1,-4.399999976E-2,-1.930000037E-1,3.999999911E-2,2.019529681E-1
7.784017750E-1,-6.400000304E-2,-1.379999965E-1,2.199999988E-2,1.537010066E-1
7.881386150E-1,-1.089999974E-1,-1.110000014E-1,8.999999613E-3,1.558300348E-1
7.978753090E-1,-1.640000045E-1,-9.200000018E-2,-1.400000043E-2,1.885629909E-1
8.076119390E-1,-1.459999979E-1,-6.800000370E-2,-4.800000042E-2,1.680595130E-1
8.173487830E-1,-9.600000083E-2,-4.899999872E-2,-7.299999893E-2,1.301768024E-1
8.270854860E-1,-1.430000067E-1,6.000000052E-3,-2.300000004E-2,1.449620706E-1
8.368221020E-1,-1.260000020E-1,2.199999988E-2,1.899999939E-2,1.293097076E-1
8.465589460E-1,-9.399999678E-2,-1.999999955E-2,-1.499999966E-2,9.726766866E-2
8.562955780E-1,-1.089999974E-1,8.000000380E-3,-3.500000015E-2,1.147606180E-1
8.660322630E-1,-1.640000045E-1,8.999999613E-3,-3.400000185E-2,1.677289528E-1
8.757691100E-1,-1.809999943E-1,-3.200000152E-2,-3.500000015E-2,1.871095883E-1
8.855057170E-1,-2.189999968E-1,-1.299999952E-1,-8.500000089E-2,2.684883564E-1
8.952424070E-1,-2.409999967E-1,-1.150000021E-1,4.000000190E-3,2.670617885E-1
9.049792590E-1,-2.829999924E-1,-1.270000041E-1,4.199999943E-2,3.130207608E-1
9.147158760E-1,-2.980000079E-1,-2.939999998E-1,4.500000179E-2,4.210285082E-1
9.244525610E-1,-2.099999934E-1,-2.560000122E-1,2.469999939E-1,4.130920000E-1
9.341894070E-1,-1.679999977E-1,-1.759999990E-1,1.659999937E-1,2.945437095E-1
9.439260210E-1,-1.560000032E-1,-1.899999976E-1,1.529999971E-1,2.895600097E-1
9.536627150E-1,-5.400000140E-2,-1.729999930E-1,2.560000122E-1,3.136574628E-1
9.633995610E-1,-2.500000037E-2,-1.650000066E-1,2.300000042E-1,2.841654520E-1
9.731361700E-1,-4.800000042E-2,-1.749999970E-1,1.589999944E-1,2.412674806E-1
9.828728600E-1,-1.080000028E-1,-1.909999996E-1,1.040000021E-1,2.428188644E-1
9.926097100E-1,-7.999999821E-2,-9.399999678E-2,5.000000075E-2,1.331765715E-1
1.002346405E0,-1.499999966E-2,-8.699999750E-2,4.519999921E-1,4.605409780E-1
1.012083006E0,8.999999613E-3,-1.599999964E-1,1.700000018E-1,2.336257680E-1
1.021819636E0,-1.609999985E-1,-1.000000015E-1,-1.499999966E-2,1.901210135E-1
1.031556529E0,-1.379999965E-1,-4.899999872E-2,1.899999976E-1,2.398853852E-1
1.041293146E0,-1.159999967E-1,-5.099999905E-2,2.109999955E-1,2.461259783E-1
1.051029766E0,-1.430000067E-1,-7.999999821E-2,1.299999952E-1,2.091626171E-1
1.060766611E0,-1.220000014E-1,-2.999999933E-2,1.539999992E-1,1.987460692E-1
1.070503281E0,-1.490000039E-1,-6.000000052E-3,9.600000083E-2,1.773499403E-1
1.080239896E0,-1.840000004E-1,4.999999888E-3,4.399999976E-2,1.892537981E-1
1.089976730E0,-1.560000032E-1,-2.000000095E-3,6.000000052E-3,1.561281557E-1
1.099713425E0,-1.350000054E-1,-2.600000054E-2,6.000000052E-3,1.376117781E-1
1.109450269E0,-1.159999967E-1,-1.899999939E-2,3.799999878E-2,1.235354164E-1
1.119186886E0,-1.209999993E-1,-1.899999939E-2,7.400000095E-2,1.431013625E-1
1.128923507E0,-1.340000033E-1,-3.599999845E-2,7.500000298E-2,1.577244472E-1
1.138660428E0,-1.340000033E-1,-8.799999952E-2,7.000000030E-2,1.749285593E-1
1.148397074E0,-9.200000018E-2,-1.110000014E-1,4.699999839E-2,1.516377268E-1
1.158133690E0,-8.900000155E-2,-7.000000030E-2,-1.600000076E-2,1.143547128E-1
1.167870390E0,-1.010000035E-1,-4.800000042E-2,-1.019999981E-1,1.513571946E-1
1.177607240E0,-1.449999958E-1,-4.999999888E-3,-1.400000006E-1,2.016184489E-1
1.187343863E0,-1.459999979E-1,2.099999972E-2,-1.430000067E-1,2.054409922E-1
1.197080784E0,-1.439999938E-1,2.300000004E-2,-1.099999994E-1,1.826608827E-1
1.206817406E0,-1.710000038E-1,1.999999955E-2,-1.089999974E-1,2.037694794E-1
1.216554098E0,-2.329999954E-1,4.699999839E-2,-1.230000034E-1,2.676322075E-1
1.226290714E0,-2.750000060E-1,9.700000286E-2,-8.100000024E-2,3.026466651E-1
1.236027558E0,-2.790000141E-1,1.180000007E-1,-6.000000052E-3,3.029868116E-1
1.245764252E0,-1.940000057E-1,1.260000020E-1,5.700000003E-2,2.382456773E-1
1.255500868E0,-1.129999980E-1,9.899999946E-2,1.799999923E-2,1.513076317E-1
1.265237707E0,-5.799999833E-2,3.099999949E-2,-1.180000007E-1,1.350888594E-1
1.274974401E0,8.999999613E-3,-1.490000039E-1,-2.689999938E-1,3.076410210E-1
1.284711031E0,1.099999994E-1,-2.610000074E-1,-2.960000038E-1,4.096791500E-1
1.294447875E0,2.080000043E-1,-2.129999995E-1,-2.080000043E-1,3.631762704E-1
1.304184560E0,1.729999930E-1,-6.300000101E-2,-6.800000370E-2,1.962702173E-1
1.313921180E0,1.659999937E-1,9.999999776E-3,8.100000024E-2,1.849783715E-1
1.323658024E0,1.519999951E-1,-2.199999988E-2,1.800000072E-1,2.366178376E-1
1.333394646E0,1.379999965E-1,-9.899999946E-2,2.280000001E-1,2.843044125E-1
1.343131337E0,1.330000013E-1,-1.360000074E-1,2.469999939E-1,3.117595217E-1
1.352868202E0,1.270000041E-1,-1.500000060E-1,2.000000030E-1,2.804086375E-1
1.362604819E0,1.289999932E-1,-1.140000001E-1,1.260000020E-1,2.133377575E-1
1.372341500E0,1.070000008E-1,-1.260000020E-1,4.199999943E-2,1.705549783E-1
1.382078347E0,4.199999943E-2,-7.599999756E-2,-3.999999911E-2,9.560334466E-2
1.391814964E0,-1.400000043E-2,-3.500000015E-2,-1.650000066E-1,1.692512989E-1
1.401551654E0,-4.199999943E-2,1.700000092E-2,-2.210000008E-1,2.255969866E-1
1.411288491E0,-7.500000298E-2,6.599999964E-2,-2.329999954E-1,2.535152821E-1
1.421025185E0,-1.099999994E-1,8.500000089E-2,-1.930000037E-1,2.378528988E-1
1.430761757E0,-1.490000039E-1,1.030000001E-1,-9.600000083E-2,2.050024423E-1
1.440498601E0,-1.340000033E-1,8.200000226E-2,2.099999972E-2,1.584960607E-1
1.450235214E0,-1.169999987E-1,5.700000003E-2,9.700000286E-2,1.623175907E-1
1.459971904E0,-1.230000034E-1,5.000000075E-2,1.790000051E-1,2.228676799E-1
1.469708735E0,-1.030000001E-1,8.399999887E-2,2.049999982E-1,2.443153681E-1
1.479445353E0,-4.500000179E-2,7.900000364E-2,1.739999950E-1,1.963211629E-1
1.489182038E0,3.900000080E-2,7.800000161E-2,1.250000000E-1,1.524139112E-1
1.498918894E0,1.700000092E-2,6.599999964E-2,4.899999872E-2,8.394045424E-2
1.508655512E0,0.000000000E0,4.600000009E-2,-5.499999970E-2,7.170076691E-2
1.518392212E0,4.000000190E-3,3.799999878E-2,-1.389999986E-1,1.441561636E-1
1.528129067E0,-2.600000054E-2,5.200000107E-2,-1.990000010E-1,2.073185967E-1
1.537865685E0,-5.000000075E-2,6.199999899E-2,-2.319999933E-1,2.452916567E-1
1.547602361E0,-4.100000113E-2,7.400000095E-2,-2.590000033E-1,2.724665153E-1
1.557338978E0,-2.099999972E-2,9.499999881E-2,-2.269999981E-1,2.469716561E-1
1.567075870E0,-3.500000015E-2,1.019999981E-1,-1.739999950E-1,2.047071027E-1
1.576812488E0,-6.400000304E-2,9.600000083E-2,-1.260000020E-1,1.708449621E-1
1.586549098E0,-7.800000161E-2,8.699999750E-2,-7.500000298E-2,1.388452385E-1
1.596285942E0,-1.230000034E-1,9.200000018E-2,1.700000092E-2,1.545380241E-1
1.606022646E0,-1.250000000E-1,7.100000232E-2,8.200000226E-2,1.654992468E-1
1.615759490E0,-1.410000026E-1,4.600000009E-2,1.270000041E-1,1.952588072E-1
1.625496093E0,-1.319999993E-1,3.299999982E-2,1.770000011E-1,2.232532199E-1
1.635232784E0,-1.289999932E-1,-8.000000380E-3,1.729999930E-1,2.159490584E-1
1.644969601E0,-1.319999993E-1,-2.999999933E-2,1.469999999E-1,1.998324291E-1
1.654706218E0,-1.340000033E-1,-3.700000048E-2,1.260000020E-1,1.876192992E-1
1.664442914E0,-1.089999974E-1,-4.000000190E-3,1.529999971E-1,1.878989051E-1
1.674179760E0,-1.289999932E-1,1.799999923E-2,1.350000054E-1,1.875899775E-1
1.683916372E0,-1.379999965E-1,2.800000086E-2,8.900000155E-2,1.665803091E-1
1.693653077E0,-1.209999993E-1,3.099999949E-2,6.400000304E-2,1.403495643E-1
1.703389923E0,-1.150000021E-1,2.899999917E-2,9.899999946E-2,1.544894829E-1
1.713126622E0,-1.070000008E-1,2.899999917E-2,1.030000001E-1,1.513241558E-1
1.722863237E0,-1.190000027E-1,1.200000010E-2,1.089999974E-1,1.618208889E-1
1.732600087E0,-1.420000046E-1,6.000000052E-3,1.309999973E-1,1.932899392E-1
1.742336704E0,-1.239999980E-1,2.400000021E-2,1.659999937E-1,2.085857076E-1
1.752073394E0,-1.289999932E-1,3.400000185E-2,2.029999942E-1,2.429114983E-1
1.761810241E0,-1.230000034E-1,3.500000015E-2,2.509999871E-1,2.817001853E-1
1.771546834E0,-1.129999980E-1,3.700000048E-2,3.479999900E-1,3.677526242E-1
1.781283524E0,-1.420000046E-1,6.499999762E-2,4.169999957E-1,4.452841760E-1
1.791020365E0,-1.059999987E-1,3.599999845E-2,4.110000134E-1,4.259730163E-1
1.800756983E0,-7.400000095E-2,-1.300000027E-2,3.650000095E-1,3.726526628E-1
1.810493659E0,-7.800000161E-2,-9.099999815E-2,2.489999980E-1,2.763439866E-1
1.820230500E0,-5.799999833E-2,-1.749999970E-1,9.099999815E-2,2.055966888E-1
1.829967195E0,-7.699999958E-2,-1.529999971E-1,-5.200000107E-2,1.790027910E-1
1.839703810E0,-7.800000161E-2,-1.499999966E-2,-1.410000026E-1,1.618332505E-1
1.849440426E0,-5.999999866E-2,9.200000018E-2,-2.259999961E-1,2.512767361E-1
1.859177347E0,9.999999776E-3,1.239999980E-1,-2.840000093E-1,3.100516163E-1
1.868913954E0,9.399999678E-2,7.800000161E-2,-2.240000069E-1,2.551391831E-1
1.878650798E0,1.379999965E-1,1.799999923E-2,-1.669999957E-1,2.173867466E-1
1.888387411E0,1.480000019E-1,-5.400000140E-2,-1.430000067E-1,2.127651349E-1
1.898124101E0,1.640000045E-1,-8.200000226E-2,-9.000000358E-2,2.042547490E-1
1.907860952E0,1.899999976E-1,-8.100000024E-2,-2.600000054E-2,2.081754048E-1
1.917597646E0,2.039999962E-1,-1.089999974E-1,1.099999994E-2,2.315556043E-1
1.927334262E0,1.659999937E-1,-1.289999932E-1,4.500000179E-2,2.149930146E-1
1.937071106E0,1.059999987E-1,-1.260000020E-1,4.800000042E-2,1.715109334E-1
1.946807781E0,6.899999827E-2,-1.120000035E-1,5.900000036E-2,1.441735086E-1
1.956544397E0,4.100000113E-2,-1.159999967E-1,5.499999970E-2,1.347664620E-1
1.966281250E0,4.699999839E-2,-1.180000007E-1,6.400000304E-2,1.422286905E-1
1.976017949E0,3.000000026E-3,-7.900000364E-2,4.699999839E-2,9.197282437E-2
1.985754560E0,-3.599999845E-2,-5.400000140E-2,-4.000000190E-3,6.502307314E-2
1.995491404E0,-2.500000037E-2,-7.500000298E-2,-4.100000113E-2,8.905616519E-2
2.005228084E0,-2.700000070E-2,-6.499999762E-2,2.800000086E-2,7.574958598E-2
2.014964928E0,-6.300000101E-2,-1.700000092E-2,1.159999967E-1,1.330939495E-1
2.024701522E0,-5.099999905E-2,9.999999776E-3,9.200000018E-2,1.056645633E-1
2.034438212E0,-1.700000092E-2,8.000000380E-3,3.900000080E-2,4.328972280E-2
2.044174830E0,1.700000092E-2,-1.999999955E-2,5.400000140E-2,6.004165358E-2
2.053911678E0,1.899999939E-2,-3.799999878E-2,9.200000018E-2,1.013360741E-1
2.063648372E0,2.099999972E-2,-4.600000009E-2,5.700000003E-2,7.619711280E-2
2.073385197E0,4.000000190E-3,-5.999999866E-2,-3.599999845E-2,7.008565994E-2
2.083121815E0,9.999999776E-3,-7.299999893E-2,-6.899999827E-2,1.009455279E-1
2.092858510E0,-1.700000092E-2,-5.900000036E-2,-3.900000080E-2,7.273926131E-2
2.102595356E0,-5.700000003E-2,-4.800000042E-2,3.999999911E-2,8.457540997E-2
2.112332059E0,-4.699999839E-2,-9.999999776E-3,8.500000089E-2,9.764220397E-2
2.122068675E0,1.400000043E-2,2.300000004E-2,4.600000009E-2,5.330103209E-2
2.131805519E0,1.400000043E-2,-4.000000190E-3,5.000000075E-2,5.207686711E-2
2.141542237E0,-4.600000009E-2,-3.099999949E-2,8.500000089E-2,1.014987691E-1
2.151278853E0,-1.089999974E-1,-1.600000076E-2,6.499999762E-2,1.279140303E-1
2.161015712E0,-1.749999970E-1,-8.000000380E-3,3.999999911E-2,1.796913990E-1
2.170752329E0,7.199999690E-2,-2.700000070E-2,-7.900000364E-2,1.102451821E-1
2.180489015E0,6.700000167E-2,-4.500000179E-2,-9.200000018E-2,1.223846413E-1
2.190225861E0,-3.000000026E-3,-2.000000095E-3,-2.199999988E-2,2.229349670E-2
2.199962560E0,-2.500000037E-2,-1.099999994E-2,-5.600000173E-2,6.230569967E-2
2.209699176E0,-4.600000009E-2,-2.099999972E-2,-1.169999987E-1,1.274597964E-1
2.219436020E0,-1.899999939E-2,-3.599999845E-2,-1.620000005E-1,1.670359243E-1
2.229172718E0,-3.400000185E-2,-3.999999911E-2,-1.500000060E-1,1.589213700E-1
2.238909562E0,-6.700000167E-2,-3.099999949E-2,-1.209999993E-1,1.417427248E-1
2.248646195E0,-9.600000083E-2,1.000000047E-3,-6.400000304E-2,1.153819767E-1
2.258382885E0,-9.000000358E-2,-8.000000380E-3,-4.399999976E-2,1.004987593E-1
2.268119735E0,6.000000052E-3,1.000000047E-3,-6.100000069E-2,6.130252918E-2
2.277856430E0,-9.999999776E-3,1.099999994E-2,-1.700000092E-2,2.258318015E-2
2.287593050E0,-1.099999994E-2,2.199999988E-2,-9.999999776E-3,2.655183589E-2
2.297329937E0,-3.099999949E-2,2.400000021E-2,6.000000052E-3,3.966106377E-2
2.307066646E0,-7.500000298E-2,-4.399999976E-2,4.000000190E-3,8.704596733E-2
2.316803262E0,-1.899999976E-1,-7.599999756E-2,9.999999776E-3,2.048804498E-1
2.326540091E0,3.999999911E-2,1.030000001E-1,-2.269999981E-1,2.524638570E-1
2.336276785E0,8.900000155E-2,1.860000044E-1,-1.180000007E-1,2.375731510E-1
2.346013411E0,8.299999684E-2,1.449999958E-1,1.770000011E-1,2.433988468E-1
2.355750255E0,2.160000056E-1,1.239999980E-1,2.210000008E-1,3.329759785E-1
2.365486963E0,2.099999934E-1,1.099999994E-1,2.660000026E-1,3.563088527E-1
2.375223579E0,1.500000060E-1,4.100000113E-2,2.450000048E-1,2.901827083E-1
2.384960418E0,9.300000221E-2,4.100000113E-2,1.250000000E-1,1.611055570E-1
2.394697112E0,9.099999815E-2,1.609999985E-1,1.159999967E-1,2.183071194E-1
2.404433966E0,-8.000000380E-3,1.599999964E-1,1.500000060E-1,2.194629824E-1
2.414170574E0,2.600000054E-2,1.010000035E-1,8.900000155E-2,1.371058023E-1
2.423907264E0,2.899999917E-2,3.799999878E-2,1.899999939E-2,5.143928300E-2
2.433643868E0,-2.999999933E-2,1.099999994E-2,8.200000226E-2,8.800568351E-2
2.443380712E0,-7.400000095E-2,9.999999776E-3,7.800000161E-2,1.079814817E-1
2.453117420E0,-5.600000173E-2,2.000000095E-3,2.400000021E-2,6.095900429E-2
2.462854264E0,-4.800000042E-2,1.700000092E-2,4.899999872E-2,7.066823859E-2
2.472590959E0,-5.700000003E-2,1.799999923E-2,9.700000286E-2,1.139385823E-1
2.482327574E0,-5.000000075E-2,-1.200000010E-2,1.030000001E-1,1.151216752E-1
2.492064418E0,8.600000292E-2,-3.599999845E-2,-6.100000069E-2,1.114136458E-1
2.501801112E0,7.500000298E-2,1.499999966E-2,1.300000027E-2,7.758221732E-2
2.511537709E0,3.900000080E-2,-1.999999955E-2,6.300000101E-2,7.674633654E-2
2.521274553E0,4.399999976E-2,-8.200000226E-2,5.099999905E-2,1.061178602E-1
2.531011208E0,7.900000364E-2,-1.059999987E-1,5.099999905E-2,1.416968603E-1
2.540748053E0,1.070000008E-1,-7.199999690E-2,1.000000047E-3,1.289728643E-1
2.550484747E0,8.399999887E-2,-2.800000086E-2,-1.070000008E-1,1.388848445E-1
2.560221362E0,-4.600000009E-2,1.200000010E-2,-7.299999893E-2,8.711486586E-2
2.569958240E0,-1.169999987E-1,3.299999982E-2,-9.000000358E-2,1.512547531E-1
2.579694935E0,-1.360000074E-1,5.700000003E-2,-4.600000009E-2,1.544700684E-1
2.589431526E0,-1.040000021E-1,2.600000054E-2,0.000000000E0,1.072007485E-1
2.599168370E0,-7.699999958E-2,-1.799999923E-2,1.200000010E-2,7.998124724E-2
2.608905055E0,-1.140000001E-1,-1.799999923E-2,3.299999982E-2,1.200374940E-1
2.618641699E0,-1.120000035E-1,1.600000076E-2,2.899999917E-2,1.167946949E-1
2.628378543E0,-1.260000020E-1,2.199999988E-2,8.699999750E-2,1.546900128E-1
2.638115238E0,-1.010000035E-1,0.000000000E0,1.140000001E-1,1.523056162E-1
2.647852068E0,-4.399999976E-2,-4.000000190E-3,1.589999944E-1,1.650242352E-1
2.657588685E0,4.999999888E-3,-1.300000027E-2,2.220000029E-1,2.224365107E-1
2.667325366E0,5.600000173E-2,1.499999966E-2,2.000000095E-3,5.800862163E-2
2.677062212E0,6.599999964E-2,9.600000083E-2,1.309999973E-1,1.753082981E-1
2.686798867E0,-3.099999949E-2,-1.999999955E-2,1.280000061E-1,1.332103656E-1
2.696535482E0,-8.999999613E-3,-4.100000113E-2,1.169999987E-1,1.243020506E-1
2.706272326E0,-8.000000380E-3,-3.200000152E-2,8.999999613E-3,3.419064340E-2
2.716009020E0,6.000000052E-3,1.099999994E-2,-7.000000030E-2,7.111258708E-2
2.725745645E0,-1.700000092E-2,4.199999943E-2,-4.300000146E-2,6.246599162E-2
2.735482490E0,-2.999999933E-2,3.299999982E-2,-4.500000179E-2,6.335613711E-2
2.745219198E0,0.000000000E0,2.400000021E-2,-5.999999866E-2,6.462197652E-2
2.754956042E0,2.600000054E-2,-1.899999939E-2,-7.299999893E-2,7.978721607E-2
2.764692655E0,2.500000037E-2,-4.600000009E-2,-5.299999937E-2,7.449832186E-2
2.774429346E0,7.000000216E-3,-2.800000086E-2,-4.600000009E-2,5.430469648E-2
2.784166192E0,-1.899999939E-2,-2.199999988E-2,-8.600000292E-2,9.077995634E-2
2.793902886E0,-1.499999966E-2,-6.000000052E-3,-1.289999932E-1,1.300076853E-1
2.803639502E0,1.099999994E-2,2.500000037E-2,-1.169999987E-1,1.201457436E-1
2.813376365E0,-6.599999964E-2,4.000000190E-3,-2.419999987E-1,2.508704832E-1
2.823113059E0,-1.400000043E-2,4.399999976E-2,-3.900000080E-2,6.044005339E-2
2.832849675E0,0.000000000E0,-3.500000015E-2,-7.999999821E-2,8.732124440E-2
2.842586519E0,8.799999952E-2,-1.270000041E-1,-6.100000069E-2,1.661144215E-1
2.852323194E0,1.260000020E-1,-1.260000020E-1,3.000000026E-3,1.782161637E-1
2.862060038E0,1.589999944E-1,-9.700000286E-2,8.100000024E-2,2.031034190E-1
2.871796732E0,1.350000054E-1,-7.199999690E-2,1.159999967E-1,1.920026047E-1
2.881533576E0,1.140000001E-1,3.000000026E-3,7.299999893E-2,1.354031014E-1
2.891270189E0,6.300000101E-2,7.900000364E-2,1.799999923E-2,1.026352799E-1
2.901006880E0,3.500000015E-2,1.430000067E-1,-3.999999911E-2,1.525581917E-1
2.910743497E0,1.300000027E-2,1.780000031E-1,-1.379999965E-1,2.256036351E-1
2.920480341E0,-1.999999955E-2,1.620000005E-1,-1.860000044E-1,2.474671731E-1
2.930217030E0,-1.260000020E-1,9.200000018E-2,-2.599999905E-1,3.032160873E-1
2.939953884E0,-7.999999821E-2,1.080000028E-1,-2.029999942E-1,2.434604649E-1
2.949690578E0,-6.599999964E-2,1.600000076E-2,-1.490000039E-1,1.637467592E-1
2.959427212E0,4.600000009E-2,-3.840000033E-1,-2.370000035E-1,4.535868210E-1
2.969164092E0,3.310000002E-1,-1.230000034E-1,5.299999937E-2,3.570700224E-1
2.978900786E0,4.100000113E-2,2.649999857E-1,1.640000045E-1,3.143278448E-1
2.988637596E0,-5.400000140E-2,2.440000027E-1,1.070000008E-1,2.718473867E-1
2.998374213E0,5.099999905E-2,1.879999936E-1,4.679999948E-1,5.069210911E-1
3.008110899E0,3.089999855E-1,9.200000018E-2,2.980000079E-1,4.390318846E-1
3.017847516E0,3.260000050E-1,2.700000070E-2,1.940000057E-1,3.803169803E-1
3.027584375E0,2.090000063E-1,-9.999999776E-3,2.619999945E-1,3.352983742E-1
3.037321070E0,2.049999982E-1,-4.800000042E-2,2.430000007E-1,3.215244931E-1
3.047057914E0,2.220000029E-1,-4.300000146E-2,2.240000069E-1,3.182907546E-1
3.056794608E0,2.689999938E-1,-4.100000113E-2,1.860000044E-1,3.296027888E-1
3.066531248E0,2.360000014E-1,-3.299999982E-2,1.519999951E-1,2.826464208E-1
3.076268092E0,1.979999989E-1,-8.000000380E-3,1.439999938E-1,2.449571346E-1
3.086004786E0,1.469999999E-1,1.000000047E-3,1.319999993E-1,1.975702401E-1
3.095741630E0,9.899999946E-2,-1.499999966E-2,8.500000089E-2,1.313430624E-1
3.105478325E0,1.040000021E-1,-4.199999943E-2,7.800000161E-2,1.366162532E-1
3.115214940E0,7.900000364E-2,-5.099999905E-2,9.700000286E-2,1.350962658E-1
3.124951803E0,2.400000021E-2,-4.699999839E-2,1.689999998E-1,1.770480155E-1
3.134688498E0,-1.099999994E-2,-6.599999964E-2,2.090000063E-1,2.194493167E-1
3.144425337E0,-4.100000113E-2,-4.399999976E-2,2.039999962E-1,2.126805081E-1
3.154162031E0,-5.600000173E-2,-2.999999933E-2,1.509999931E-1,1.638200173E-1
3.163898647E0,-2.700000070E-2,-4.999999888E-3,4.399999976E-2,5.186521007E-2
3.173635467E0,-1.999999955E-2,6.000000052E-3,-9.899999946E-2,1.011780603E-1
3.183372084E0,-4.199999943E-2,1.200000010E-2,-1.840000004E-1,1.891137226E-1
3.193108803E0,-7.199999690E-2,1.999999955E-2,-2.879999876E-1,2.975365396E-1
3.202845650E0,-6.899999827E-2,4.000000190E-3,-3.700000048E-1,3.764000575E-1
3.212582348E0,1.700000092E-2,3.299999982E-2,-4.329999983E-1,4.345883093E-1
3.222319192E0,-1.120000035E-1,3.500000015E-2,-2.370000035E-1,2.644579407E-1
3.232055806E0,-1.280000061E-1,8.999999613E-3,-1.860000044E-1,2.259668188E-1
3.241792496E0,-7.800000161E-2,-3.099999949E-2,-1.659999937E-1,1.860134353E-1
3.251529321E0,-6.499999762E-2,-2.700000070E-2,-7.100000232E-2,9.997499716E-2
3.261266054E0,-9.899999946E-2,-1.899999939E-2,2.800000086E-2,1.046231328E-1
3.271002904E0,-1.299999952E-1,-2.300000004E-2,9.300000221E-2,1.614868390E-1
3.280739521E0,-1.019999981E-1,-3.999999911E-2,1.230000034E-1,1.647209773E-1
3.290476196E0,-9.000000358E-2,-2.700000070E-2,1.720000058E-1,1.959923537E-1
3.300212814E0,-9.000000358E-2,-1.700000092E-2,1.809999943E-1,2.028546243E-1
3.309949673E0,-1.080000028E-1,-7.000000216E-3,1.379999965E-1,1.753767364E-1
3.319686367E0,-1.140000001E-1,-1.000000047E-3,9.200000018E-2,1.464957339E-1
3.329423196E0,-1.239999980E-1,9.999999776E-3,2.999999933E-2,1.279687440E-1
3.339159891E0,-1.089999974E-1,1.099999994E-2,-4.000000190E-3,1.096266365E-1
3.348896525E0,-8.399999887E-2,3.299999982E-2,-8.000000380E-3,9.060353086E-2
3.358633369E0,-9.000000358E-2,6.700000167E-2,-2.199999988E-2,1.143372243E-1
3.368370055E0,-1.010000035E-1,6.199999899E-2,-3.099999949E-2,1.224989818E-1
3.378106899E0,-8.799999952E-2,6.400000304E-2,-3.999999911E-2,1.159310150E-1
3.387843583E0,-6.100000069E-2,6.199999899E-2,-7.999999821E-2,1.181735997E-1
3.397580427E0,-1.200000010E-2,3.099999949E-2,-1.230000034E-1,1.274127184E-1
3.407317025E0,-2.899999917E-2,8.999999613E-3,-1.319999993E-1,1.354474059E-1
3.417053720E0,-4.300000146E-2,1.000000047E-3,-1.430000067E-1,1.493285038E-1
3.426790366E0,-2.000000095E-3,-1.099999994E-2,-1.389999986E-1,1.394489139E-1
3.436527211E0,1.700000092E-2,-2.899999917E-2,-1.110000014E-1,1.159784476E-1
3.446263900E0,5.099999905E-2,-1.700000092E-2,0.000000000E0,5.375871961E-2
3.456000744E0,4.899999872E-2,-6.199999899E-2,4.899999872E-2,9.298386754E-2
3.465737424E0,9.600000083E-2,-1.129999980E-1,6.800000370E-2,1.631226539E-1
3.475474269E0,6.300000101E-2,-1.010000035E-1,1.030000001E-1,1.574134710E-1
3.485210886E0,5.099999905E-2,-7.500000298E-2,1.190000027E-1,1.496228626E-1
3.494947576E0,4.399999976E-2,-7.500000298E-2,6.800000370E-2,1.103856917E-1
3.504684423E0,4.100000113E-2,-5.999999866E-2,5.299999937E-2,8.994442654E-2
3.514421117E0,2.400000021E-2,-3.400000185E-2,8.100000024E-2,9.106591115E-2
3.524157976E0,-2.000000095E-3,-4.999999888E-3,4.699999839E-2,4.730750308E-2
3.533894574E0,-1.000000047E-3,-1.000000047E-3,-2.300000004E-2,2.304343729E-2
3.543631274E0,-9.999999776E-3,-2.500000037E-2,-6.100000069E-2,6.667833305E-2
3.553368120E0,-2.899999917E-2,-3.900000080E-2,-7.800000161E-2,9.190212329E-2
3.563104800E0,-8.000000380E-3,-4.600000009E-2,-9.899999946E-2,1.094577540E-1
3.572841416E0,1.400000043E-2,-5.499999970E-2,-1.049999967E-1,1.193566056E-1
3.582578260E0,8.000000380E-3,-5.700000003E-2,-7.599999756E-2,9.533624514E-2
3.592314954E0,1.600000076E-2,-6.499999762E-2,-4.100000113E-2,7.849840640E-2
3.602051803E0,-1.499999966E-2,-4.800000042E-2,-8.600000292E-2,9.962429690E-2
3.611788421E0,4.000000190E-3,-4.800000042E-2,-1.199999973E-1,1.293058367E-1
3.621525096E0,2.600000054E-2,-3.999999911E-2,-1.120000035E-1,1.217374253E-1
3.631261952E0,-1.499999966E-2,-3.700000048E-2,-5.299999937E-2,6.635510499E-2
3.640998647E0,-1.300000027E-2,-3.500000015E-2,4.000000190E-3,3.754996696E-2
3.650735500E0,1.799999923E-2,-5.200000107E-2,8.000000380E-3,5.560575590E-2
3.660472194E0,1.700000092E-2,-2.300000004E-2,6.100000069E-2,6.737210192E-2
3.670208801E0,-2.000000095E-3,1.600000076E-2,1.389999986E-1,1.399321251E-1
3.679945645E0,-8.999999613E-3,3.400000185E-2,2.249999940E-1,2.277322934E-1
3.689682329E0,-1.200000010E-2,2.199999988E-2,2.430000007E-1,2.442887643E-1
3.699419173E0,-1.799999923E-2,-9.999999776E-3,2.259999961E-1,2.269361104E-1
3.709155854E0,-1.700000092E-2,-2.300000004E-2,2.020000070E-1,2.040147124E-1
3.718892469E0,0.000000000E0,-5.299999937E-2,1.650000066E-1,1.733032086E-1
3.728629313E0,1.300000027E-2,-4.800000042E-2,1.509999931E-1,1.589779795E-1
3.738366002E0,1.099999994E-2,-2.300000004E-2,1.239999980E-1,1.265938367E-1
3.748102837E0,4.399999976E-2,-4.999999888E-3,7.100000232E-2,8.367795593E-2
3.757839454E0,8.299999684E-2,-4.000000190E-3,1.099999994E-2,8.382123523E-2
3.767576129E0,7.100000232E-2,-1.300000027E-2,-9.999999776E-3,7.286974909E-2
3.777312976E0,3.400000185E-2,-3.000000026E-3,1.400000043E-2,3.689173536E-2
3.787049655E0,1.899999939E-2,4.000000190E-3,4.800000042E-2,5.177837404E-2
3.796786499E0,5.400000140E-2,2.000000095E-3,5.299999937E-2,7.569015844E-2
3.806523116E0,7.299999893E-2,2.000000095E-3,6.400000304E-2,9.710303926E-2
3.816259807E0,9.799999744E-2,1.499999966E-2,5.999999866E-2,1.158835593E-1
3.825996653E0,7.100000232E-2,1.799999923E-2,1.600000076E-2,7.497333077E-2
3.835733347E0,2.999999933E-2,5.900000036E-2,8.999999613E-3,6.679820353E-2
3.845470192E0,4.000000190E-3,4.100000113E-2,4.800000042E-2,6.325345947E-2
3.855206886E0,3.400000185E-2,1.400000043E-2,5.799999833E-2,6.867313845E-2
3.864943501E0,5.499999970E-2,-4.000000190E-3,4.600000009E-2,7.181225506E-2
3.874680345E0,8.699999750E-2,-5.900000036E-2,1.899999939E-2,1.068222804E-1
3.884417025E0,1.140000001E-1,-9.799999744E-2,-3.999999911E-2,1.555634901E-1
3.894153888E0,8.100000024E-2,-6.599999964E-2,-2.899999917E-2,1.084343117E-1
3.903890505E0,1.400000043E-2,-2.600000054E-2,-2.500000037E-2,3.869108500E-2
3.913627431E0,1.700000092E-2,-1.200000010E-2,-6.499999762E-2,6.824954010E-2
3.923364049E0,2.199999988E-2,-1.200000010E-2,-9.600000083E-2,9.921693483E-2
3.933100751E0,-1.999999955E-2,0.000000000E0,-8.600000292E-2,8.829496296E-2
3.942837595E0,-3.400000185E-2,7.000000216E-3,-5.299999937E-2,6.335613674E-2
3.952574290E0,-3.099999949E-2,3.200000152E-2,-5.099999905E-2,6.772001158E-2
3.962310905E0,-4.000000190E-3,3.400000185E-2,-3.799999878E-2,5.114684775E-2
3.972047749E0,-2.099999972E-2,6.899999827E-2,2.700000070E-2,7.701298454E-2
3.981784444E0,-5.200000107E-2,7.900000364E-2,2.600000054E-2,9.808669998E-2
3.991521292E0,-4.600000009E-2,3.500000015E-2,2.099999972E-2,6.149796750E-2
4.001257986E0,-3.599999845E-2,2.999999933E-2,4.199999943E-2,6.292852931E-2
4.010994845E0,-7.199999690E-2,5.499999970E-2,2.700000070E-2,9.454099406E-2
4.020731463E0,-7.999999821E-2,6.400000304E-2,1.099999994E-2,1.030388281E-1
4.030468158E0,-6.100000069E-2,7.400000095E-2,1.600000076E-2,9.722654087E-2
4.040205004E0,-9.999999776E-3,2.899999917E-2,3.000000026E-3,3.082206916E-2
4.049941708E0,-1.400000043E-2,-8.000000380E-3,-4.199999943E-2,4.498888719E-2
4.059678572E0,-2.899999917E-2,-4.999999888E-3,-1.070000008E-1,1.109729702E-1
4.069415189E0,-5.999999866E-2,-1.000000047E-3,-1.190000027E-1,1.332741554E-1
4.079152110E0,-8.799999952E-2,1.400000043E-2,-8.399999887E-2,1.224581550E-1
4.088888737E0,-9.399999678E-2,3.599999845E-2,-3.400000185E-2,1.062449971E-1
4.098625429E0,-6.400000304E-2,4.899999872E-2,-1.999999955E-2,8.304818027E-2
4.108362288E0,-1.300000027E-2,6.400000304E-2,8.999999613E-3,6.592420185E-2
4.118098982E0,-1.400000043E-2,2.199999988E-2,2.999999933E-2,3.974921341E-2
4.127835626E0,-1.999999955E-2,1.600000076E-2,6.300000101E-2,6.800735353E-2
4.137572470E0,-1.099999994E-2,1.499999966E-2,7.000000030E-2,7.242927606E-2
4.147309164E0,1.899999939E-2,3.299999982E-2,6.400000304E-2,7.447147342E-2
4.157046009E0,4.399999976E-2,4.300000146E-2,4.699999839E-2,7.742092710E-2
4.166782732E0,6.899999827E-2,5.799999833E-2,3.999999911E-2,9.861541206E-2
4.176519576E0,6.800000370E-2,3.999999911E-2,8.000000380E-3,7.929691316E-2
4.186256193E0,5.299999937E-2,4.500000179E-2,-1.300000027E-2,7.073188886E-2
4.195992884E0,4.199999943E-2,3.900000080E-2,-3.400000185E-2,6.664082938E-2
4.205729725E0,4.399999976E-2,4.600000009E-2,-4.899999872E-2,8.033056617E-2
4.215466381E0,9.999999776E-3,6.300000101E-2,-3.599999845E-2,7.324616039E-2
4.225203234E0,-2.199999988E-2,7.000000030E-2,8.000000380E-3,7.381056864E-2
4.234939852E0,-3.099999949E-2,5.400000140E-2,4.899999872E-2,7.923383112E-2
4.244676571E0,-4.000000190E-3,3.700000048E-2,6.800000370E-2,7.751774338E-2
4.254413494E0,2.400000021E-2,4.000000190E-3,1.999999955E-2,3.149603140E-2
4.264150098E0,4.899999872E-2,-8.000000380E-3,-1.600000076E-2,5.216320451E-2
4.273886942E0,5.200000107E-2,-2.400000021E-2,-4.699999839E-2,7.408778557E-2
4.283623640E0,3.999999911E-2,-1.300000027E-2,-8.299999684E-2,9.304837135E-2
4.293360484E0,1.600000076E-2,2.000000095E-3,-3.099999949E-2,3.494281032E-2
4.303097093E0,1.600000076E-2,1.799999923E-2,-3.799999878E-2,4.498888644E-2
4.312833783E0,5.400000140E-2,-9.999999776E-3,0.000000000E0,5.491812221E-2
4.322570609E0,8.500000089E-2,6.400000304E-2,2.220000029E-1,2.461808315E-1
4.332307304E0,2.700000070E-2,1.519999951E-1,4.099999964E-1,4.381015814E-1
4.342044148E0,-4.000000190E-3,1.080000028E-1,3.980000019E-1,4.124124175E-1
4.351780842E0,-4.000000190E-3,3.000000026E-3,3.050000072E-1,3.050409880E-1
4.361517707E0,1.700000092E-2,-7.199999690E-2,1.780000031E-1,1.927615125E-1
4.371254402E0,-3.400000185E-2,-1.110000014E-1,9.999999776E-3,1.165203864E-1
4.380991021E0,-8.999999613E-3,-8.500000089E-2,-1.309999973E-1,1.564193064E-1
4.390727865E0,9.700000286E-2,0.000000000E0,-1.230000034E-1,1.566461024E-1
4.400464536E0,1.650000066E-1,4.899999872E-2,-1.289999932E-1,2.150976529E-1
4.410201380E0,1.260000020E-1,7.100000232E-2,-1.099999994E-1,1.817058081E-1
4.419938045E0,4.800000042E-2,6.400000304E-2,-2.000000095E-3,8.002499878E-2
4.429674889E0,-8.000000380E-3,4.999999888E-3,-2.999999933E-2,3.144836983E-2
4.439411483E0,-7.500000298E-2,-6.599999964E-2,-7.500000298E-2,1.249239803E-1
4.449148404E0,-1.379999965E-1,-9.799999744E-2,2.199999988E-2,1.706809847E-1
4.458885007E0,-1.819999963E-1,-5.999999866E-2,1.190000027E-1,2.255770359E-1
4.468621700E0,-1.930000037E-1,-3.799999878E-2,1.360000074E-1,2.391422241E-1
4.478358539E0,-1.209999993E-1,-2.000000095E-3,1.809999943E-1,2.177291845E-1
4.488095223E0,-4.500000179E-2,5.700000003E-2,2.119999975E-1,2.240937284E-1
4.497832067E0,3.500000015E-2,7.299999893E-2,2.300000042E-1,2.438319130E-1
4.507568729E0,1.999999955E-2,5.499999970E-2,2.300000042E-1,2.373288897E-1
4.517305419E0,2.600000054E-2,2.600000054E-2,1.739999950E-1,1.778426223E-1
4.527042250E0,4.500000179E-2,-1.999999955E-2,4.899999872E-2,6.946941786E-2
4.536778939E0,-2.000000095E-3,-6.700000167E-2,-8.900000155E-2,1.114181336E-1
4.546515794E0,-8.100000024E-2,-8.900000155E-2,-1.209999993E-1,1.706546224E-1
4.556252488E0,-7.000000030E-2,-8.399999887E-2,-1.389999986E-1,1.768530448E-1
4.565989313E0,-6.800000370E-2,-8.100000024E-2,-7.100000232E-2,1.273813207E-1
4.575725931E0,-7.299999893E-2,-9.099999815E-2,-5.099999905E-2,1.273224230E-1
4.585462856E0,-5.200000107E-2,-8.399999887E-2,-6.000000052E-3,9.897474386E-2
4.595199550E0,-6.499999762E-2,-5.000000075E-2,3.900000080E-2,9.080748773E-2
4.604936170E0,-6.599999964E-2,-4.500000179E-2,3.799999878E-2,8.845903018E-2
4.614673015E0,-2.199999988E-2,-4.199999943E-2,8.299999684E-2,9.558765309E-2
4.624409700E0,0.000000000E0,-2.199999988E-2,1.129999980E-1,1.151216728E-1
4.634146544E0,2.899999917E-2,1.300000027E-2,7.400000095E-2,8.053570699E-2
4.643883238E0,8.999999613E-3,4.000000190E-3,1.099999994E-2,1.476482283E-2
4.653619829E0,8.000000380E-3,5.200000107E-2,2.400000021E-2,5.782733028E-2
4.663356673E0,8.999999613E-3,5.099999905E-2,5.999999866E-2,7.925906721E-2
4.673093367E0,-9.099999815E-2,-2.199999988E-2,1.089999974E-1,1.436871570E-1
4.682830212E0,-1.080000028E-1,-8.100000024E-2,9.499999881E-2,1.650757415E-1
4.692566926E0,-1.099999994E-2,3.799999878E-2,1.449999958E-1,1.502996963E-1
4.702303793E0,5.999999866E-2,5.299999937E-2,3.160000145E-1,3.259831421E-1
4.712040487E0,9.499999881E-2,8.999999613E-3,3.659999967E-1,3.782353729E-1
4.721777323E0,8.200000226E-2,9.999999776E-3,2.649999857E-1,2.775770033E-1
4.731514007E0,4.999999888E-3,2.899999917E-2,1.679999977E-1,1.705579057E-1
4.741250622E0,-2.199999988E-2,4.199999943E-2,8.200000226E-2,9.472064357E-2
4.750987567E0,8.999999613E-3,6.000000052E-3,-7.000000216E-3,1.288409860E-2
4.760724185E0,6.199999899E-2,-4.000000190E-3,-7.599999756E-2,9.816312701E-2
4.770461005E0,1.000000015E-1,3.400000185E-2,-1.120000035E-1,1.539480471E-1
4.780197699E0,1.430000067E-1,7.000000030E-2,-1.000000015E-1,1.880133034E-1
4.789934562E0,1.650000066E-1,8.399999887E-2,-8.500000089E-2,2.037302190E-1
4.799671257E0,1.949999928E-1,7.000000030E-2,-1.169999987E-1,2.379369600E-1
4.809408097E0,2.419999987E-1,1.999999955E-2,-1.400000006E-1,2.802927033E-1
4.819144714E0,2.259999961E-1,3.000000026E-3,-1.729999930E-1,2.846295764E-1
4.828881395E0,2.160000056E-1,-2.899999917E-2,-2.020000070E-1,2.971548506E-1
4.838618241E0,1.749999970E-1,-5.999999866E-2,-2.029999942E-1,2.746525012E-1
4.848354920E0,1.369999945E-1,-1.010000035E-1,-1.710000038E-1,2.412695599E-1
4.858091760E0,9.399999678E-2,-1.330000013E-1,-1.169999987E-1,2.005342849E-1
4.867828469E0,5.700000003E-2,-1.260000020E-1,-7.400000095E-2,1.568470614E-1
4.877565313E0,2.300000004E-2,-1.360000074E-1,-1.099999994E-2,1.383690790E-1
4.887301983E0,-3.000000026E-3,-1.669999957E-1,-2.000000095E-3,1.670389133E-1
4.897038827E0,-3.099999949E-2,-1.759999990E-1,4.999999888E-3,1.787791924E-1
4.906775459E0,-4.100000113E-2,-1.469999999E-1,1.200000010E-2,1.530816777E-1
4.916512380E0,-5.000000075E-2,-1.180000007E-1,-2.700000070E-2,1.309694632E-1
4.926249016E0,-6.199999899E-2,-1.239999980E-1,-6.700000167E-2,1.539772697E-1
4.935985709E0,-1.400000043E-2,-1.309999973E-1,-8.299999684E-2,1.557112673E-1
4.945722563E0,4.399999976E-2,-1.089999974E-1,-6.599999964E-2,1.348072675E-1
4.955459257E0,5.700000003E-2,-1.099999994E-1,-6.499999762E-2,1.399071105E-1
4.965196096E0,2.300000004E-2,-1.150000021E-1,-8.900000155E-2,1.472243212E-1
4.974932791E0,7.000000216E-3,-1.019999981E-1,-1.049999967E-1,1.465537407E-1
4.984669640E0,3.000000026E-3,-4.399999976E-2,-8.299999684E-2,9.398935820E-2
4.994406334E0,-1.000000047E-3,-8.999999613E-3,-7.800000161E-2,7.852388327E-2
5.004143173E0,2.300000004E-2,-3.500000015E-2,-6.700000167E-2,7.901265871E-2
5.013879858E0,3.099999949E-2,-1.400000043E-2,-4.699999839E-2,5.801723735E-2
5.023616702E0,2.800000086E-2,1.200000010E-2,-3.099999949E-2,4.346262785E-2
5.033353319E0,5.499999970E-2,3.700000048E-2,-6.599999964E-2,9.354143443E-2
5.043090010E0,1.030000001E-1,4.699999839E-2,-7.000000030E-2,1.331089776E-1
5.052826861E0,1.220000014E-1,4.399999976E-2,-4.899999872E-2,1.386398218E-1
5.062563555E0,1.420000046E-1,5.799999833E-2,-4.600000009E-2,1.601374445E-1
5.072300385E0,1.070000008E-1,4.600000009E-2,-4.500000179E-2,1.248599229E-1
5.082037080E0,3.900000080E-2,5.600000173E-2,-6.899999827E-2,9.704638076E-2
5.091773928E0,-2.199999988E-2,8.600000292E-2,-6.599999964E-2,1.106164565E-1
5.101510622E0,-8.900000155E-2,8.799999952E-2,-1.019999981E-1,1.614589725E-1
5.111247476E0,-1.700000018E-1,1.150000021E-1,-9.700000286E-2,2.270110166E-1
5.120984171E0,-2.549999952E-1,1.280000061E-1,-1.400000043E-2,2.856658872E-1
5.130720815E0,-2.829999924E-1,9.499999881E-2,6.400000304E-2,3.053031212E-1
5.140457659E0,-2.709999979E-1,6.599999964E-2,1.640000045E-1,3.235629773E-1
5.150194577E0,-2.300000042E-1,2.199999988E-2,2.210000008E-1,3.197264491E-1
5.159931195E0,-1.860000044E-1,-2.600000054E-2,2.199999988E-1,2.892611297E-1
5.169667872E0,-1.309999973E-1,-8.600000292E-2,2.460000068E-1,2.916727672E-1
5.179404750E0,-1.129999980E-1,-7.699999958E-2,2.549999952E-1,2.893492648E-1
5.189141445E0,-9.799999744E-2,-3.099999949E-2,2.360000014E-1,2.574121212E-1
5.198878255E0,-5.000000075E-2,-1.000000047E-3,1.620000005E-1,1.695435054E-1
5.208614968E0,-3.099999949E-2,1.300000027E-2,8.799999952E-2,9.420191023E-2
5.218351812E0,-2.000000095E-3,3.900000080E-2,4.800000042E-2,6.187891485E-2
5.228088511E0,3.400000185E-2,5.400000140E-2,1.300000027E-2,6.512296280E-2
5.237825355E0,7.199999690E-2,7.500000298E-2,-1.799999923E-2,1.055130322E-1
5.247562040E0,1.059999987E-1,4.199999943E-2,-5.700000003E-2,1.274715642E-1
5.257298884E0,1.920000017E-1,3.000000026E-3,-1.049999967E-1,2.188561170E-1
5.267035588E0,2.189999968E-1,-3.999999911E-2,-1.529999971E-1,2.701295942E-1
5.276772203E0,2.199999988E-1,-7.900000364E-2,-1.930000037E-1,3.031336363E-1
5.286509124E0,1.679999977E-1,-8.299999684E-2,-2.160000056E-1,2.859527953E-1
5.296245742E0,1.669999957E-1,-4.800000042E-2,-2.210000008E-1,2.811298614E-1
5.305982620E0,1.360000074E-1,-2.199999988E-2,-2.000000030E-1,2.428579898E-1
5.315719314E0,1.059999987E-1,-2.600000054E-2,-1.400000006E-1,1.775161962E-1
5.325456129E0,3.400000185E-2,4.000000190E-3,-1.019999981E-1,1.075918200E-1
5.335192819E0,1.099999994E-2,9.999999776E-3,-7.100000232E-2,7.253964657E-2
5.344929668E0,-3.000000026E-3,7.000000216E-3,-7.400000095E-2,7.439086062E-2
5.354666362E0,2.500000037E-2,2.000000095E-3,-6.199999899E-2,6.688048963E-2
5.364403182E0,1.200000010E-2,-1.600000076E-2,-2.400000021E-2,3.124099929E-2
5.374139891E0,-1.899999939E-2,-6.000000052E-3,2.700000070E-2,3.355592370E-2
5.383876735E0,-5.700000003E-2,-1.499999966E-2,1.799999923E-2,6.162791547E-2
5.393613429E0,-6.700000167E-2,-7.000000216E-3,-1.999999955E-2,7.027090585E-2
5.403350273E0,-3.799999878E-2,1.000000047E-3,1.799999923E-2,4.205948026E-2
5.413086968E0,-6.800000370E-2,2.899999917E-2,-3.400000185E-2,8.136953103E-2
5.422823812E0,-7.900000364E-2,4.600000009E-2,-9.000000358E-2,1.282848441E-1
5.432560530E0,-1.190000027E-1,5.099999905E-2,-1.049999967E-1,1.666943306E-1
5.442297374E0,-1.739999950E-1,5.799999833E-2,-1.180000007E-1,2.180917198E-1
5.452034074E0,-2.179999948E-1,7.699999958E-2,-1.110000014E-1,2.564644185E-1
5.461770918E0,-1.710000038E-1,7.900000364E-2,-5.600000173E-2,1.965146358E-1
5.471507641E0,-1.180000007E-1,6.199999899E-2,2.400000021E-2,1.354400238E-1
5.481244485E0,-5.000000075E-2,4.899999872E-2,8.399999887E-2,1.093480670E-1
5.490981166E0,-2.500000037E-2,5.600000173E-2,1.049999967E-1,1.215976954E-1
5.500718015E0,-5.099999905E-2,4.800000042E-2,1.140000001E-1,1.337946186E-1
5.510454733E0,-8.200000226E-2,6.400000304E-2,1.369999945E-1,1.720145321E-1
5.520191577E0,-1.280000061E-1,7.299999893E-2,1.539999992E-1,2.131408012E-1
5.529928248E0,-1.410000026E-1,6.800000370E-2,1.319999993E-1,2.047657224E-1
5.539665092E0,-1.289999932E-1,6.199999899E-2,1.439999938E-1,2.030295455E-1
5.549401723E0,-1.270000041E-1,8.500000089E-2,1.589999944E-1,2.205334428E-1
5.559138644E0,-1.150000021E-1,1.019999981E-1,1.430000067E-1,2.099476173E-1
5.568875243E0,-6.899999827E-2,9.099999815E-2,1.459999979E-1,1.853591077E-1
5.578612164E0,-8.000000380E-3,6.899999827E-2,1.319999993E-1,1.491609854E-1
5.588348891E0,2.899999917E-2,4.699999839E-2,1.309999973E-1,1.421653934E-1
5.598085735E0,2.999999933E-2,5.999999866E-2,1.169999987E-1,1.348665989E-1
5.607822358E0,3.200000152E-2,7.999999821E-2,8.100000024E-2,1.182581915E-1
5.617559279E0,1.899999939E-2,9.200000018E-2,6.400000304E-2,1.136705784E-1
5.627295916E0,2.999999933E-2,8.799999952E-2,7.100000232E-2,1.169829056E-1
5.637032609E0,2.500000037E-2,7.599999756E-2,9.799999744E-2,1.265108657E-1
5.646769453E0,3.900000080E-2,4.399999976E-2,1.019999981E-1,1.177327467E-1
5.656506132E0,2.500000037E-2,1.300000027E-2,1.040000021E-1,1.077497122E-1
5.666242976E0,2.000000095E-3,-3.200000152E-2,7.400000095E-2,8.064738210E-2
5.675979671E0,-2.800000086E-2,-2.700000070E-2,7.800000161E-2,8.716077293E-2
5.685716525E0,1.000000047E-3,-2.400000021E-2,8.299999684E-2,8.640601533E-2
5.695453219E0,5.799999833E-2,-2.700000070E-2,6.300000101E-2,8.978864055E-2
5.705190048E0,1.000000015E-1,-4.899999872E-2,2.700000070E-2,1.145862130E-1
5.714926743E0,9.799999744E-2,-4.100000113E-2,-2.400000021E-2,1.089082164E-1
5.724663563E0,7.199999690E-2,-8.000000380E-3,-6.800000370E-2,9.935793910E-2
5.734400257E0,3.599999845E-2,3.799999878E-2,-1.379999965E-1,1.475940339E-1
5.744137106E0,-1.000000047E-3,4.899999872E-2,-1.599999964E-1,1.673379775E-1
5.753873801E0,-8.000000380E-3,3.799999878E-2,-1.350000054E-1,1.404742018E-1
5.763610645E0,1.000000047E-3,1.600000076E-2,-7.299999893E-2,7.473954688E-2
5.773347324E0,8.000000380E-3,-1.300000027E-2,-8.000000380E-3,1.723368849E-2
5.783084168E0,3.700000048E-2,-3.299999982E-2,8.600000292E-2,9.926731852E-2
5.792820849E0,1.400000043E-2,-6.300000101E-2,1.550000012E-1,1.678987805E-1
5.802557693E0,2.199999988E-2,-1.120000035E-1,1.140000001E-1,1.613195611E-1
5.812294373E0,1.799999923E-2,-1.550000012E-1,6.800000370E-2,1.702145729E-1
5.822031217E0,-1.899999939E-2,-1.449999958E-1,4.899999872E-2,1.542303428E-1
5.831767912E0,-5.700000003E-2,-9.000000358E-2,2.999999933E-2,1.106752032E-1
5.841504756E0,-1.999999955E-2,-5.000000075E-2,-2.400000021E-2,5.895761246E-2
5.851241435E0,6.400000304E-2,-1.600000076E-2,-1.010000035E-1,1.206358202E-1
5.860978279E0,1.430000067E-1,-4.000000190E-3,-1.899999976E-1,2.378339778E-1
5.870714960E0,1.749999970E-1,2.300000004E-2,-2.540000081E-1,3.093056790E-1
5.880451804E0,1.449999958E-1,4.500000179E-2,-3.019999862E-1,3.380147787E-1
5.890188507E0,7.900000364E-2,6.100000069E-2,-3.129999936E-1,3.285285324E-1
5.899925351E0,-2.300000004E-2,3.500000015E-2,-3.400000036E-1,3.425697045E-1
5.909662041E0,-1.239999980E-1,1.200000010E-2,-3.050000072E-1,3.294616880E-1
5.919398885E0,-2.049999982E-1,-1.400000043E-2,-1.990000010E-1,2.860454503E-1
5.929135598E0,-2.569999993E-1,-3.999999911E-2,-3.400000185E-2,2.623070714E-1
5.938872442E0,-2.509999871E-1,-7.400000095E-2,1.490000039E-1,3.011278713E-1
5.948609128E0,-1.889999956E-1,-1.260000020E-1,3.319999874E-1,4.022697981E-1
5.958345972E0,-9.300000221E-2,-1.669999957E-1,4.760000110E-1,5.129464001E-1
5.968082651E0,-3.400000185E-2,-1.490000039E-1,5.159999728E-1,5.381570154E-1
5.977819500E0,5.999999866E-2,-1.580000073E-1,5.609999895E-1,5.859052742E-1
5.987556204E0,1.539999992E-1,-1.770000011E-1,5.289999843E-1,5.786933415E-1
5.997293048E0,2.210000008E-1,-1.589999944E-1,4.059999883E-1,4.888332938E-1
6.007029747E0,2.179999948E-1,-1.099999994E-1,2.039999962E-1,3.181823314E-1
6.016766591E0,1.860000044E-1,-6.499999762E-2,-1.099999994E-2,1.973372781E-1
6.026503256E0,1.150000021E-1,7.000000216E-3,-2.569999993E-1,2.816433917E-1
6.036240177E0,3.200000152E-2,8.799999952E-2,-3.729999959E-1,3.845737861E-1
6.045977006E0,-1.499999966E-2,1.190000027E-1,-3.610000014E-1,3.804037351E-1
6.055713698E0,-6.199999899E-2,1.509999931E-1,-2.919999957E-1,3.345280187E-1
6.065450542E0,-1.350000054E-1,1.199999973E-1,-1.829999983E-1,2.571264284E-1
6.075187237E0,-1.620000005E-1,5.900000036E-2,-4.100000113E-2,1.772173815E-1
6.084924071E0,-1.580000073E-1,-3.500000015E-2,8.900000155E-2,1.846889347E-1
6.094660765E0,-1.700000018E-1,-1.330000013E-1,2.140000015E-1,3.039490115E-1
6.104397625E0,-2.070000023E-1,-1.550000012E-1,3.519999981E-1,4.367814098E-1
6.114134304E0,-2.529999912E-1,-1.309999973E-1,4.280000031E-1,5.141536711E-1
6.123871148E0,-1.749999970E-1,-9.899999946E-2,4.449999928E-1,4.883144402E-1
6.133607861E0,-9.099999815E-2,-8.600000292E-2,4.140000045E-1,4.325193683E-1
6.143344706E0,4.999999888E-3,-2.800000086E-2,3.589999974E-1,3.601249758E-1
6.153081424E0,6.800000370E-2,2.099999972E-2,2.560000122E-1,2.657084995E-1
6.162818268E0,1.120000035E-1,6.499999762E-2,1.770000011E-1,2.193125643E-1
6.172554958E0,1.459999979E-1,7.900000364E-2,6.800000370E-2,1.793906365E-1
6.182291803E0,1.500000060E-1,7.199999690E-2,-2.999999933E-2,1.690680375E-1
6.192028477E0,1.620000005E-1,7.800000161E-2,-1.250000000E-1,2.189817353E-1
6.201765321E0,1.729999930E-1,6.300000101E-2,-2.090000063E-1,2.785300708E-1
6.211502001E0,1.749999970E-1,3.999999911E-2,-3.129999936E-1,3.608240497E-1
6.221238846E0,1.049999967E-1,-9.999999776E-3,-3.939999938E-1,4.078737481E-1
6.230975549E0,9.999999776E-3,-2.899999917E-2,-4.280000031E-1,4.290978940E-1
6.240712393E0,-7.000000030E-2,-1.600000076E-2,-4.199999869E-1,4.260938735E-1
6.250449092E0,-1.500000060E-1,-3.000000026E-3,-3.869999945E-1,4.150638476E-1
6.260186013E0,-1.630000025E-1,-9.999999776E-3,-3.300000131E-1,3.681969710E-1
6.269922617E0,-1.689999998E-1,1.799999923E-2,-2.569999993E-1,3.081136146E-1
6.279659461E0,-1.550000012E-1,3.200000152E-2,-1.289999932E-1,2.041812888E-1
6.289396131E0,-1.120000035E-1,4.899999872E-2,-4.300000146E-2,1.295916694E-1
6.299133053E0,-6.300000101E-2,4.199999943E-2,1.799999923E-2,7.782673096E-2
6.308869901E0,-7.100000232E-2,3.500000015E-2,1.010000035E-1,1.283238133E-1
6.318606593E0,-4.300000146E-2,1.600000076E-2,1.560000032E-1,1.626068915E-1
6.328343437E0,-5.600000173E-2,-4.999999888E-3,1.580000073E-1,1.677051057E-1
6.338080132E0,-3.700000048E-2,0.000000000E0,1.340000033E-1,1.390143911E-1
6.347816961E0,-3.799999878E-2,4.000000190E-3,1.369999945E-1,1.422286835E-1
6.357553655E0,-3.299999982E-2,-8.999999613E-3,1.739999950E-1,1.773301955E-1
6.367290499E0,-4.699999839E-2,-8.999999613E-3,1.780000031E-1,1.843203758E-1
6.377027194E0,-3.400000185E-2,-4.999999888E-3,1.840000004E-1,1.871817306E-1
6.386764043E0,-1.300000027E-2,-7.000000216E-3,2.000000030E-1,2.005442625E-1
6.396500737E0,-1.499999966E-2,3.200000152E-2,2.150000036E-1,2.178852947E-1
6.406237668E0,8.999999613E-3,5.700000003E-2,2.049999982E-1,2.129671319E-1
6.415974286E0,3.299999982E-2,5.499999970E-2,1.620000005E-1,1.742354732E-1
6.425711197E0,7.699999958E-2,6.899999827E-2,1.250000000E-1,1.622189869E-1
6.435447814E0,9.600000083E-2,9.399999678E-2,8.799999952E-2,1.606113305E-1
6.445184629E0,1.230000034E-1,1.169999987E-1,8.999999613E-3,1.699970603E-1
6.454921552E0,1.669999957E-1,1.239999980E-1,-5.700000003E-2,2.156710413E-1
6.464658257E0,1.430000067E-1,1.599999964E-1,-8.100000024E-2,2.293687006E-1
6.474395101E0,9.799999744E-2,1.659999937E-1,-1.270000041E-1,2.308440998E-1
6.484131804E0,8.799999952E-2,1.879999936E-1,-1.400000006E-1,2.503757130E-1
6.493868639E0,7.900000364E-2,1.940000057E-1,-9.499999881E-2,2.300043534E-1
6.503605334E0,6.499999762E-2,1.739999950E-1,-2.999999933E-2,1.881515291E-1
6.513342187E0,4.399999976E-2,1.169999987E-1,6.000000052E-3,1.251439158E-1
6.523078881E0,2.300000004E-2,5.600000173E-2,1.200000010E-2,6.171709810E-2
6.532815725E0,1.200000010E-2,4.000000190E-3,-8.000000380E-3,1.496662988E-2
6.542552648E0,4.999999888E-3,-4.100000113E-2,9.999999776E-3,4.249705975E-2
6.552289343E0,-1.300000027E-2,-9.499999881E-2,4.199999943E-2,1.046804649E-1
6.562026187E0,-1.899999939E-2,-1.159999967E-1,9.399999678E-2,1.505091313E-1
6.571762900E0,-3.099999949E-2,-1.330000013E-1,1.860000044E-1,2.307509522E-1
6.581499744E0,1.000000047E-3,-1.480000019E-1,2.349999994E-1,2.777228840E-1
6.591236439E0,3.099999949E-2,-1.599999964E-1,2.500000000E-1,2.984308946E-1
6.600973283E0,7.800000161E-2,-1.459999979E-1,2.280000001E-1,2.817516631E-1
6.610709982E0,9.600000083E-2,-9.700000286E-2,1.500000060E-1,2.027930041E-1
6.620446861E0,1.049999967E-1,-2.999999933E-2,3.500000015E-2,1.146734463E-1
6.630183784E0,2.199999988E-2,5.700000003E-2,-9.099999815E-2,1.096083923E-1
6.639920401E0,-7.000000216E-3,1.220000014E-1,-2.169999927E-1,2.490421594E-1
6.649657088E0,-6.000000052E-3,1.640000045E-1,-2.829999924E-1,3.271406382E-1
6.659394009E0,-1.600000076E-2,2.240000069E-1,-3.120000064E-1,3.844164501E-1
6.669130851E0,-1.400000043E-2,2.720000148E-1,-3.129999936E-1,4.149084285E-1
6.678867545E0,2.300000004E-2,3.330000043E-1,-2.770000100E-1,4.337591595E-1
6.688604399E0,2.400000021E-2,3.709999919E-1,-2.220000029E-1,4.330138511E-1
6.698341093E0,-1.000000047E-3,3.659999967E-1,-1.379999965E-1,3.911534182E-1
6.708077942E0,-8.000000380E-3,3.089999855E-1,-2.199999988E-2,3.098854482E-1
6.717814636E0,-1.400000043E-2,2.500000000E-1,1.070000008E-1,2.722957954E-1
6.727551466E0,-3.999999911E-2,2.020000070E-1,2.450000048E-1,3.200453173E-1
6.737288389E0,-8.999999613E-3,1.829999983E-1,3.449999988E-1,3.906340981E-1
6.747024978E0,2.700000070E-2,1.159999967E-1,4.169999957E-1,4.336749885E-1
6.756761899E0,3.200000152E-2,4.399999976E-2,4.629999995E-1,4.661855850E-1
6.766498559E0,-1.300000027E-2,-1.799999923E-2,4.699999988E-1,4.705241746E-1
6.776235432E0,-8.299999684E-2,-4.100000113E-2,4.040000141E-1,4.144707600E-1
6.785972132E0,-1.150000021E-1,-6.599999964E-2,3.179999888E-1,3.445359100E-1
6.795708976E0,-9.099999815E-2,-1.089999974E-1,2.240000069E-1,2.652131260E-1
6.805445689E0,-3.599999845E-2,-9.300000221E-2,1.220000014E-1,1.575722077E-1
6.815182533E0,-1.700000092E-2,-6.400000304E-2,1.400000043E-2,6.768308823E-2
6.824919257E0,1.099999994E-2,-4.399999976E-2,-9.099999815E-2,1.016759541E-1
6.834656101E0,2.899999917E-2,-3.900000080E-2,-1.529999971E-1,1.605334829E-1
6.844393014E0,3.599999845E-2,-5.200000107E-2,-2.210000008E-1,2.298717042E-1
6.854129708E0,6.400000304E-2,-2.600000054E-2,-2.479999959E-1,2.574412523E-1
6.863866552E0,8.399999887E-2,-9.999999776E-3,-2.380000055E-1,2.525866236E-1
6.873603247E0,1.199999973E-1,6.000000052E-3,-1.599999964E-1,2.000899753E-1
6.883340091E0,1.500000060E-1,1.000000047E-3,-9.799999744E-2,1.791786854E-1
6.893076770E0,1.599999964E-1,-1.999999955E-2,-5.299999937E-2,1.697321383E-1
6.902813691E0,1.889999956E-1,-1.999999955E-2,-3.000000026E-3,1.900789265E-1
6.912550324E0,2.160000056E-1,-6.000000052E-3,2.199999988E-2,2.172003739E-1
6.922287168E0,2.419999987E-1,-1.200000010E-2,1.400000043E-2,2.427014614E-1
6.932024096E0,2.540000081E-1,3.900000080E-2,-1.099999994E-2,2.572119830E-1
6.941760761E0,1.990000010E-1,6.400000304E-2,-4.899999872E-2,2.147044495E-1
6.951497615E0,1.850000024E-1,9.099999815E-2,-9.799999744E-2,2.282761487E-1
6.961234309E0,1.449999958E-1,1.099999994E-1,-9.499999881E-2,2.053046479E-1
6.970971168E0,7.000000030E-2,1.309999973E-1,-1.159999967E-1,1.884595409E-1
6.980707862E0,3.400000185E-2,1.150000021E-1,-1.299999952E-1,1.768643530E-1
6.990444707E0,-3.000000026E-3,8.100000024E-2,-1.220000014E-1,1.464718416E-1
7.000181630E0,-7.500000298E-2,3.999999911E-2,-9.000000358E-2,1.237941881E-1
7.009918348E0,-1.140000001E-1,-1.400000043E-2,-8.500000089E-2,1.428880687E-1
7.019655192E0,-1.889999956E-1,-6.199999899E-2,-5.999999866E-2,2.077618782E-1
7.029391919E0,-2.319999933E-1,-8.299999684E-2,-3.500000015E-2,2.488734546E-1
7.039128764E0,-2.479999959E-1,-9.799999744E-2,7.000000216E-3,2.667526898E-1
7.048865420E0,-2.649999857E-1,-1.260000020E-1,2.500000037E-2,2.944927723E-1
7.058602341E0,-2.739999890E-1,-1.059999987E-1,3.099999949E-2,2.954200293E-1
7.068339170E0,-2.980000079E-1,-1.330000013E-1,1.200000010E-2,3.265532193E-1
7.078075863E0,-3.030000031E-1,-1.289999932E-1,9.399999678E-2,3.424704360E-1
7.087812692E0,-2.949999869E-1,-1.190000027E-1,1.739999950E-1,3.625768762E-1
7.097549343E0,-2.709999979E-1,-1.159999967E-1,2.000000030E-1,3.562260508E-1
7.107286172E0,-2.199999988E-1,-1.010000035E-1,1.780000031E-1,3.004746267E-1
7.117022867E0,-1.599999964E-1,-8.100000024E-2,1.190000027E-1,2.152254621E-1
7.126759783E0,-1.270000041E-1,-6.700000167E-2,5.299999937E-2,1.530588161E-1
7.136496400E0,-1.080000028E-1,-3.700000048E-2,4.399999976E-2,1.223478672E-1
7.146233331E0,-1.000000015E-1,-3.299999982E-2,4.500000179E-2,1.145163763E-1
7.155970177E0,-2.700000070E-2,-2.300000004E-2,5.900000036E-2,6.884039571E-2
7.165706848E0,5.499999970E-2,1.000000047E-3,8.799999952E-2,1.037786100E-1
7.175443692E0,1.169999987E-1,1.600000076E-2,8.500000089E-2,1.454991404E-1
7.185180381E0,1.700000018E-1,1.799999923E-2,7.699999958E-2,1.874913345E-1
7.194917225E0,1.759999990E-1,7.000000216E-3,5.499999970E-2,1.845264199E-1
7.204654149E0,1.800000072E-1,1.700000092E-2,1.799999923E-2,1.816948061E-1
7.214390843E0,2.080000043E-1,4.999999888E-3,4.100000113E-2,2.120613163E-1
7.224127706E0,1.959999949E-1,6.000000052E-3,5.499999970E-2,2.036590238E-1
7.233864371E0,1.689999998E-1,-2.899999917E-2,6.599999964E-2,1.837335022E-1
7.243601197E0,1.700000018E-1,-8.799999952E-2,7.199999690E-2,2.045189480E-1
7.253337891E0,1.480000019E-1,-1.190000027E-1,3.700000048E-2,1.934786842E-1
7.263074831E0,1.089999974E-1,-1.490000039E-1,6.000000052E-3,1.847105861E-1
7.272811670E0,6.300000101E-2,-1.609999985E-1,6.000000052E-3,1.729913282E-1
7.282548362E0,3.099999949E-2,-1.720000058E-1,0.000000000E0,1.747712848E-1
7.292285202E0,2.600000054E-2,-1.640000045E-1,-6.000000052E-3,1.661565572E-1
7.302021896E0,4.000000190E-3,-1.940000057E-1,-6.499999762E-2,2.046387107E-1
7.311758745E0,-1.300000027E-2,-1.969999969E-1,-1.389999986E-1,2.414518552E-1
7.321495439E0,-2.999999933E-2,-2.020000070E-1,-1.790000051E-1,2.715603149E-1
7.331232365E0,-8.799999952E-2,-1.400000006E-1,-2.060000002E-1,2.641590433E-1
7.340969213E0,-1.369999945E-1,-9.300000221E-2,-2.129999995E-1,2.697906572E-1
7.350705915E0,-1.449999958E-1,-6.199999899E-2,-1.850000024E-1,2.430925740E-1
7.360442759E0,-1.560000032E-1,-4.899999872E-2,-9.899999946E-2,1.911491584E-1
7.370179483E0,-1.360000074E-1,-1.799999923E-2,-9.999999776E-3,1.375499981E-1
7.379916404E0,-1.379999965E-1,-8.999999613E-3,5.499999970E-2,1.488287573E-1
7.389653285E0,-1.099999994E-1,-1.400000043E-2,1.560000032E-1,1.913948821E-1
7.399389977E0,-1.319999993E-1,-2.300000004E-2,2.060000002E-1,2.457417342E-1
7.409126837E0,-9.799999744E-2,-3.299999982E-2,2.759999931E-1,2.947354673E-1
7.418863503E0,-5.999999866E-2,-2.800000086E-2,3.310000002E-1,3.375574026E-1
7.428600352E0,-8.399999887E-2,-3.500000015E-2,3.869999945E-1,3.975550221E-1
7.438337275E0,-8.699999750E-2,-5.499999970E-2,3.790000081E-1,3.927276482E-1
7.448073892E0,-8.200000226E-2,-5.900000036E-2,2.779999971E-1,2.957853932E-1
7.457810814E0,-1.150000021E-1,-4.500000179E-2,1.749999970E-1,2.141844990E-1
7.467547493E0,-8.500000089E-2,-2.500000037E-2,4.399999976E-2,9.892421417E-2
7.477284337E0,-6.599999964E-2,-2.099999972E-2,-7.400000095E-2,1.013558093E-1
7.487021045E0,-5.200000107E-2,-3.599999845E-2,-1.449999958E-1,1.581929164E-1
7.496757890E0,-2.600000054E-2,-4.500000179E-2,-2.119999975E-1,2.182773445E-1
7.506494828E0,-1.700000092E-2,-7.000000030E-2,-2.619999945E-1,2.717222795E-1
7.516231522E0,2.700000070E-2,-7.699999958E-2,-2.409999967E-1,2.544385945E-1
7.525968356E0,3.999999911E-2,-7.299999893E-2,-2.300000042E-1,2.445996764E-1
7.535705050E0,8.900000155E-2,-7.900000364E-2,-2.049999982E-1,2.370379719E-1
7.545441881E0,1.099999994E-1,-8.299999684E-2,-1.979999989E-1,2.412322510E-1
7.555178804E0,1.299999952E-1,-8.600000292E-2,-1.840000004E-1,2.411472567E-1
7.564915483E0,1.080000028E-1,-1.000000015E-1,-1.780000031E-1,2.309718641E-1
7.574652327E0,3.400000185E-2,-9.700000286E-2,-1.809999943E-1,2.081489818E-1
7.584389022E0,-1.499999966E-2,-7.000000030E-2,-1.759999990E-1,1.900026308E-1
7.594125866E0,-1.799999923E-2,-4.899999872E-2,-1.230000034E-1,1.336188635E-1
7.603862560E0,-9.999999776E-3,-1.799999923E-2,-4.100000113E-2,4.588027965E-2
7.613599390E0,4.000000190E-3,-1.899999939E-2,2.800000086E-2,3.407345047E-2
7.623336313E0,-8.999999613E-3,-1.999999955E-2,1.180000007E-1,1.200208321E-1
7.633073012E0,-4.000000190E-3,-1.000000047E-3,1.930000037E-1,1.930440401E-1
7.642809856E0,2.700000070E-2,2.099999972E-2,2.560000122E-1,2.582750593E-1
7.652546550E0,3.099999949E-2,3.099999949E-2,3.140000105E-1,3.170457483E-1
7.662283394E0,7.199999690E-2,5.600000173E-2,3.109999895E-1,3.241002827E-1
7.672020284E0,1.049999967E-1,6.899999827E-2,2.820000052E-1,3.087231803E-1
7.681756979E0,9.899999946E-2,7.000000030E-2,2.489999980E-1,2.769512573E-1
7.691493832E0,4.300000146E-2,8.100000024E-2,2.179999948E-1,2.365036953E-1
7.701230526E0,2.300000004E-2,8.299999684E-2,1.850000024E-1,2.040661666E-1
7.710967399E0,-1.200000010E-2,5.499999970E-2,1.519999951E-1,1.620894768E-1
7.720704323E0,-7.000000216E-3,3.700000048E-2,1.369999945E-1,1.420809577E-1
7.730441032E0,-1.899999939E-2,1.899999939E-2,7.599999756E-2,8.061017046E-2
7.740177852E0,-1.200000010E-2,-1.499999966E-2,-8.000000380E-3,2.080865201E-2
7.749914550E0,-5.099999905E-2,-3.999999911E-2,-4.500000179E-2,7.890500613E-2
7.759651395E0,-9.499999881E-2,-3.900000080E-2,-8.799999952E-2,1.352405256E-1
7.769388080E0,-1.230000034E-1,-4.600000009E-2,-9.799999744E-2,1.638566457E-1
7.779124924E0,-1.260000020E-1,-5.400000140E-2,-6.499999762E-2,1.517135470E-1
7.788861837E0,-1.110000014E-1,-8.699999750E-2,-8.100000024E-2,1.626376338E-1
7.798598532E0,-1.000000015E-1,-9.099999815E-2,-3.400000185E-2,1.394166421E-1
7.808335386E0,-9.200000018E-2,-6.800000370E-2,-1.499999966E-2,1.153819766E-1
7.818072080E0,-6.899999827E-2,-4.300000146E-2,-1.600000076E-2,8.286132941E-2
7.827809005E0,-2.500000037E-2,0.000000000E0,-1.600000076E-2,2.968164488E-2
7.837545853E0,6.000000052E-3,4.199999943E-2,1.400000043E-2,4.467661542E-2
7.847282570E0,5.000000075E-2,7.599999756E-2,2.999999933E-2,9.579143836E-2
7.857019414E0,5.900000036E-2,6.700000167E-2,1.700000092E-2,9.087904212E-2
7.866756084E0,6.400000304E-2,8.200000226E-2,2.700000070E-2,1.074662775E-1
7.876493005E0,2.999999933E-2,1.309999973E-1,5.499999970E-2,1.452101898E-1
7.886229848E0,3.099999949E-2,1.439999938E-1,7.400000095E-2,1.648423438E-1
7.895966570E0,3.299999982E-2,1.270000041E-1,8.799999952E-2,1.579936737E-1
7.905703395E0,8.999999613E-3,7.000000030E-2,8.600000292E-2,1.112519687E-1
7.915440089E0,-2.000000095E-3,3.900000080E-2,7.000000030E-2,8.015609836E-2
7.925176923E0,-4.500000179E-2,0.000000000E0,8.799999952E-2,9.883825209E-2
7.934913618E0,-5.600000173E-2,-2.000000095E-3,8.600000292E-2,1.026450228E-1
7.944650539E0,-6.599999964E-2,-8.999999613E-3,7.699999958E-2,1.018135545E-1
7.954387387E0,-7.199999690E-2,-1.899999939E-2,6.899999827E-2,1.015184677E-1
7.964124069E0,-8.299999684E-2,-2.099999972E-2,3.200000152E-2,9.140021642E-2
7.973860900E0,-7.699999958E-2,-3.500000015E-2,1.000000047E-3,8.458723276E-2
7.983597823E0,-8.200000226E-2,-2.099999972E-2,4.999999888E-3,8.479386982E-2
7.993334502E0,-6.100000069E-2,3.000000026E-3,1.600000076E-2,6.313477733E-2
8.003071346E0,-2.199999988E-2,-1.799999923E-2,-2.999999933E-2,4.132795575E-2
8.012808051E0,-3.000000026E-3,-4.000000190E-3,-6.100000069E-2,6.120457569E-2
8.022544972E0,1.400000043E-2,-4.000000190E-3,-8.900000155E-2,9.018314859E-2
8.032281825E0,2.300000004E-2,3.299999982E-2,-1.070000008E-1,1.143109800E-1
8.042018517E0,3.999999911E-2,7.800000161E-2,-1.519999951E-1,1.754650925E-1
8.051755361E0,4.699999839E-2,9.899999946E-2,-1.500000060E-1,1.857686775E-1
8.061492080E0,7.500000298E-2,9.899999946E-2,-9.499999881E-2,1.563681557E-1
8.071229015E0,9.000000358E-2,1.089999974E-1,-6.499999762E-2,1.555827746E-1
8.080965863E0,1.049999967E-1,9.700000286E-2,-2.700000070E-2,1.454750834E-1
8.090702550E0,9.799999744E-2,1.110000014E-1,2.999999933E-2,1.510794486E-1
8.100439394E0,1.159999967E-1,1.120000035E-1,7.999999821E-2,1.799999992E-1
8.110176323E0,1.150000021E-1,9.399999678E-2,9.099999815E-2,1.741895506E-1
8.119912940E0,1.180000007E-1,8.200000226E-2,1.059999987E-1,1.785609147E-1
8.129649880E0,9.399999678E-2,7.599999756E-2,7.599999756E-2,1.427865493E-1
8.139386574E0,5.499999970E-2,5.200000107E-2,2.899999917E-2,8.105553670E-2
8.149123424E0,2.899999917E-2,4.500000179E-2,-6.000000052E-3,5.387021545E-2
8.158860118E0,-1.099999994E-2,6.400000304E-2,-3.400000185E-2,7.330075384E-2
8.168597049E0,-3.700000048E-2,4.399999976E-2,-4.899999872E-2,7.553806914E-2
8.178333897E0,-3.099999949E-2,3.799999878E-2,-7.500000298E-2,8.961026907E-2
8.188070593E0,-5.900000036E-2,2.300000004E-2,-6.599999964E-2,9.146584060E-2
8.197807438E0,-9.600000083E-2,8.000000380E-3,-6.599999964E-2,1.167732851E-1
8.207544381E0,-1.049999967E-1,1.099999994E-2,-6.899999827E-2,1.261229522E-1
8.217281060E0,-1.230000034E-1,-1.099999994E-2,-6.599999964E-2,1.400214297E-1
8.227017884E0,-1.089999974E-1,-4.100000113E-2,-2.400000021E-2,1.189033201E-1
8.236754579E0,-1.000000015E-1,-7.999999821E-2,9.999999776E-3,1.284523258E-1
8.246491437E0,-6.599999964E-2,-9.099999815E-2,5.600000173E-2,1.255906040E-1
8.256228360E0,-4.500000179E-2,-7.900000364E-2,9.399999678E-2,1.307746158E-1
8.265965059E0,-4.600000009E-2,-7.199999690E-2,6.100000069E-2,1.049809490E-1
8.275701903E0,-2.999999933E-2,-6.599999964E-2,5.099999905E-2,8.863971917E-2
8.285438598E0,-3.099999949E-2,-3.999999911E-2,2.000000095E-3,5.064582804E-2
8.295175442E0,-5.400000140E-2,-1.899999939E-2,-4.100000113E-2,7.041306854E-2
8.304912126E0,-5.999999866E-2,-9.999999776E-3,-5.600000173E-2,8.268010660E-2
8.314649047E0,-5.600000173E-2,-3.000000026E-3,-6.199999899E-2,8.360023964E-2
8.324385886E0,-6.599999964E-2,2.899999917E-2,-5.200000107E-2,8.888756952E-2
8.334122550E0,-5.799999833E-2,7.299999893E-2,-3.200000152E-2,9.857484338E-2
8.343859394E0,-3.099999949E-2,1.040000021E-1,-4.999999888E-3,1.086370122E-1
8.353596307E0,7.000000216E-3,9.499999881E-2,1.799999923E-2,9.694328109E-2
8.363333001E0,4.500000179E-2,7.400000095E-2,4.899999872E-2,9.950879447E-2
8.373069841E0,6.199999899E-2,8.600000292E-2,7.000000030E-2,1.270433014E-1
8.382806535E0,3.999999911E-2,1.129999980E-1,8.299999684E-2,1.458012310E-1
8.392543365E0,5.700000003E-2,1.199999973E-1,8.799999952E-2,1.593518098E-1
8.402280288E0,1.010000035E-1,9.300000221E-2,1.289999932E-1,1.883905501E-1
8.412016983E0,1.099999994E-1,7.900000364E-2,1.700000018E-1,2.173499507E-1
8.421753827E0,8.900000155E-2,3.900000080E-2,1.630000025E-1,1.897656480E-1
8.431490764E0,7.599999756E-2,7.000000216E-3,2.010000050E-1,2.150023294E-1
8.441227458E0,5.900000036E-2,-2.000000095E-3,1.979999989E-1,2.066131642E-1
8.450964288E0,5.400000140E-2,-1.600000076E-2,1.700000018E-1,1.790865734E-1
8.460700983E0,5.000000075E-2,-1.300000027E-2,1.319999993E-1,1.417497792E-1
8.470437836E0,3.200000152E-2,-2.199999988E-2,4.699999839E-2,6.096720381E-2
8.480174530E0,1.799999923E-2,-1.300000027E-2,-1.700000092E-2,2.796426310E-2
8.489911456E0,2.600000054E-2,-7.000000216E-3,-6.899999827E-2,7.406753535E-2
8.499648304E0,4.199999943E-2,-4.000000190E-3,-1.230000034E-1,1.300346138E-1
8.509385011E0,7.500000298E-2,-9.999999776E-3,-1.439999938E-1,1.626683702E-1
8.519121855E0,9.799999744E-2,-1.300000027E-2,-1.350000054E-1,1.673260319E-1
8.528858778E0,1.369999945E-1,-8.000000380E-3,-7.400000095E-2,1.559134332E-1
8.538595443E0,1.620000005E-1,-6.000000052E-3,-3.599999845E-2,1.660602302E-1
8.548332269E0,1.940000057E-1,-1.799999923E-2,8.999999613E-3,1.950410269E-1
8.558068963E0,1.959999949E-1,-1.300000027E-2,5.200000107E-2,2.031969441E-1
8.567805807E0,1.669999957E-1,-2.199999988E-2,4.500000179E-2,1.743502186E-1
8.577542730E0,1.580000073E-1,-3.000000026E-3,4.600000009E-2,1.645873698E-1
8.587279444E0,1.209999993E-1,9.999999776E-3,2.700000070E-2,1.243784542E-1
8.597016288E0,8.200000226E-2,5.499999970E-2,2.000000095E-3,9.875727993E-2
8.606753202E0,3.900000080E-2,6.899999827E-2,-3.099999949E-2,8.510581527E-2
8.616489819E0,7.000000216E-3,5.000000075E-2,2.000000095E-3,5.052722116E-2
8.626226754E0,-6.100000069E-2,2.600000054E-2,5.900000036E-2,8.875809909E-2
8.635963449E0,-1.080000028E-1,-4.000000190E-3,7.000000030E-2,1.287633513E-1
8.645700298E0,-1.180000007E-1,-3.099999949E-2,8.900000155E-2,1.510165568E-1
8.655437221E0,-9.300000221E-2,-7.599999756E-2,9.700000286E-2,1.543826434E-1
8.665173896E0,-2.060000002E-1,-1.129999980E-1,1.190000027E-1,2.633742590E-1
8.674910740E0,-2.269999981E-1,-1.059999987E-1,1.299999952E-1,2.822498851E-1
8.684647444E0,-2.280000001E-1,-1.220000014E-1,3.799999878E-2,2.613656448E-1
8.694384360E0,-2.440000027E-1,-1.059999987E-1,6.800000370E-2,2.745833236E-1
8.704121208E0,-2.689999938E-1,-8.299999684E-2,1.330000013E-1,3.113502794E-1
8.713857900E0,-1.969999969E-1,-8.900000155E-2,1.159999967E-1,2.453283479E-1
8.723594745E0,-1.700000092E-2,-8.699999750E-2,1.070000008E-1,1.389496303E-1
8.733331659E0,5.000000075E-2,-8.999999613E-3,1.439999938E-1,1.526990448E-1
8.743068353E0,3.500000015E-2,1.799999923E-2,9.200000018E-2,1.000649790E-1
8.752805187E0,1.499999966E-2,2.899999917E-2,8.000000380E-3,3.361547185E-2
8.762541881E0,7.800000161E-2,2.999999933E-2,-4.199999943E-2,9.353074448E-2
8.772278793E0,1.080000028E-1,5.099999905E-2,-6.499999762E-2,1.359779401E-1
8.782015410E0,1.360000074E-1,6.300000101E-2,-1.049999967E-1,1.830027362E-1
8.791752341E0,1.480000019E-1,6.499999762E-2,-1.070000008E-1,1.938504589E-1
8.801489187E0,1.739999950E-1,5.999999866E-2,-7.699999958E-2,1.995118995E-1
8.811225902E0,1.519999951E-1,3.400000185E-2,-6.199999899E-2,1.676424723E-1
8.820962746E0,1.400000006E-1,7.000000216E-3,-5.400000140E-2,1.502165115E-1
8.830699688E0,1.180000007E-1,-1.099999994E-2,-6.199999899E-2,1.337497665E-1
8.840436382E0,1.000000015E-1,-2.099999972E-2,-6.400000304E-2,1.205694848E-1
8.850173250E0,5.299999937E-2,-1.999999955E-2,-6.800000370E-2,8.850423955E-2
8.859909974E0,2.099999972E-2,-2.400000021E-2,-5.299999937E-2,6.185466783E-2
8.869646895E0,1.700000092E-2,-6.599999964E-2,-5.000000075E-2,8.452810218E-2
8.879383753E0,-2.000000095E-3,-9.499999881E-2,-5.000000075E-2,1.073731803E-1
8.889120445E0,-5.600000173E-2,-5.700000003E-2,-2.999999933E-2,8.535221237E-2
8.898857409E0,-7.199999690E-2,-2.600000054E-2,-8.999999613E-3,7.707787993E-2
8.908594258E0,-5.499999970E-2,0.000000000E0,2.000000095E-3,5.503635133E-2
8.918330945E0,-3.000000026E-3,-1.799999923E-2,4.199999943E-2,4.579301175E-2
8.928067813E0,1.499999966E-2,-6.300000101E-2,8.299999684E-2,1.052758263E-1
8.937804736E0,-1.200000010E-2,-8.100000024E-2,1.000000015E-1,1.292478253E-1
8.947541401E0,-3.999999911E-2,-4.800000042E-2,1.360000074E-1,1.496663021E-1
8.957278322E0,-2.999999933E-2,-1.700000092E-2,1.570000052E-1,1.607420344E-1
8.967015021E0,-2.899999917E-2,0.000000000E0,1.490000039E-1,1.517959193E-1
8.976751865E0,2.600000054E-2,0.000000000E0,1.159999967E-1,1.188780857E-1
8.986488574E0,3.500000015E-2,1.499999966E-2,6.499999762E-2,7.533259381E-2
8.996225495E0,3.400000185E-2,1.300000027E-2,4.000000190E-3,3.661966868E-2
9.005962343E0,6.000000052E-3,8.999999613E-3,-4.500000179E-2,4.628174753E-2
9.015699064E0,1.600000076E-2,1.899999939E-2,-9.399999678E-2,9.722653648E-2
9.025435922E0,1.200000010E-2,1.400000043E-2,-1.299999952E-1,1.313011758E-1
9.035172617E0,9.999999776E-3,-1.000000047E-3,-1.700000018E-1,1.702968015E-1
9.044909533E0,-8.999999613E-3,-1.000000047E-3,-1.519999951E-1,1.522694930E-1
9.054646381E0,-1.300000027E-2,-1.099999994E-2,-1.089999974E-1,1.103222527E-1
9.064383326E0,-2.899999917E-2,-6.000000052E-3,-6.400000304E-2,7.051950327E-2
9.074120040E0,-3.500000015E-2,-3.099999949E-2,6.000000052E-3,4.713809478E-2
9.083856885E0,-3.400000185E-2,-3.500000015E-2,5.099999905E-2,7.058328441E-2
9.093593594E0,-2.700000070E-2,-4.600000009E-2,8.200000226E-2,9.782126772E-2
9.103330515E0,-1.700000092E-2,-3.099999949E-2,7.500000298E-2,8.291562245E-2
9.113067146E0,-1.099999994E-2,-2.199999988E-2,5.999999866E-2,6.484597006E-2
9.122804067E0,0.000000000E0,-1.000000047E-3,3.799999878E-2,3.801315440E-2
9.132540905E0,-2.800000086E-2,1.000000047E-3,3.500000015E-2,4.483302420E-2
9.142277599E0,-1.999999955E-2,1.799999923E-2,3.099999949E-2,4.104875056E-2
9.152014447E0,-1.000000047E-3,4.699999839E-2,2.000000095E-3,4.705315982E-2
9.161751370E0,1.799999923E-2,2.899999917E-2,6.000000052E-3,3.465544581E-2
9.171488065E0,3.700000048E-2,6.300000101E-2,1.300000027E-2,7.420916500E-2
9.181224924E0,2.700000070E-2,5.900000036E-2,3.799999878E-2,7.519308470E-2
9.190961847E0,1.600000076E-2,7.599999756E-2,6.899999827E-2,1.038893614E-1
9.200698526E0,-8.999999613E-3,4.399999976E-2,7.000000030E-2,8.316850374E-2
9.210435365E0,-8.999999613E-3,6.499999762E-2,1.319999993E-1,1.474109884E-1
9.220172060E0,-3.000000026E-3,6.100000069E-2,9.200000018E-2,1.104264466E-1
9.229908981E0,1.799999923E-2,7.199999690E-2,8.600000292E-2,1.135957747E-1
9.239645829E0,2.099999972E-2,5.299999937E-2,1.200000010E-2,5.825804600E-2
9.249382540E0,-1.799999923E-2,4.899999872E-2,-1.499999966E-2,5.431390095E-2
9.259119384E0,-3.900000080E-2,4.300000146E-2,-7.800000161E-2,9.723168434E-2
9.268856094E0,-4.199999943E-2,1.499999966E-2,-1.379999965E-1,1.450275801E-1
9.278593015E0,-3.599999845E-2,-2.999999933E-2,-1.819999963E-1,1.879361554E-1
9.288329848E0,-3.400000185E-2,-6.100000069E-2,-1.879999936E-1,2.005517334E-1
9.298066540E0,-5.099999905E-2,-7.299999893E-2,-1.289999932E-1,1.567513891E-1
9.307803438E0,-2.800000086E-2,-1.019999981E-1,-4.500000179E-2,1.149478135E-1
9.317540286E0,-1.099999994E-2,-1.140000001E-1,2.199999988E-2,1.166233253E-1
9.327276964E0,2.199999988E-2,-9.600000083E-2,7.699999958E-2,1.250159993E-1
9.337013774E0,5.499999970E-2,-8.100000024E-2,1.669999957E-1,1.935846031E-1
9.346750469E0,6.400000304E-2,-6.199999899E-2,2.080000043E-1,2.262830132E-1
9.356487390E0,1.159999967E-1,-4.899999872E-2,2.039999962E-1,2.397352655E-1
9.366224253E0,2.099999934E-1,-4.100000113E-2,1.620000005E-1,2.683747333E-1
9.375960945E0,2.399999946E-1,8.000000380E-3,1.019999981E-1,2.608984420E-1
9.385697875E0,2.169999927E-1,4.199999943E-2,4.699999839E-2,2.259690170E-1
9.395434723E0,1.819999963E-1,6.400000304E-2,2.600000054E-2,1.946689474E-1
9.405171426E0,1.990000010E-1,4.199999943E-2,1.200000010E-2,2.037375771E-1
9.414908270E0,2.010000050E-1,4.100000113E-2,-9.999999776E-3,2.053825750E-1
9.424644925E0,1.790000051E-1,8.100000024E-2,-3.900000080E-2,2.003072688E-1
9.434381769E0,1.659999937E-1,9.700000286E-2,-2.600000054E-2,1.940128823E-1
9.444118664E0,1.790000051E-1,9.499999881E-2,8.999999613E-3,2.028472371E-1
9.453855368E0,1.570000052E-1,3.299999982E-2,2.099999972E-2,1.617992634E-1
9.463592212E0,1.340000033E-1,-2.800000086E-2,2.400000021E-2,1.389820167E-1
9.473329135E0,4.800000042E-2,-6.400000304E-2,2.700000070E-2,8.443340848E-2
9.483065829E0,-1.700000092E-2,-9.899999946E-2,5.099999905E-2,1.126543378E-1
9.492802674E0,-7.400000095E-2,-1.140000001E-1,5.099999905E-2,1.451654231E-1
9.502539377E0,-1.330000013E-1,-1.420000046E-1,1.999999955E-2,1.955837459E-1
9.512276298E0,-1.650000066E-1,-1.319999993E-1,-1.700000092E-2,2.119858533E-1
9.522013127E0,-1.899999976E-1,-1.410000026E-1,-4.100000113E-2,2.401291318E-1
9.531749791E0,-2.109999955E-1,-1.449999958E-1,-4.500000179E-2,2.599442191E-1
9.541486712E0,-2.029999942E-1,-1.330000013E-1,-1.899999939E-2,2.434317111E-1
9.551223532E0,-1.909999996E-1,-1.190000027E-1,4.000000190E-3,2.250733225E-1
9.560960224E0,-1.959999949E-1,-1.159999967E-1,9.999999776E-3,2.279736766E-1
9.570697072E0,-2.199999988E-1,-8.699999750E-2,3.000000026E-3,2.365967012E-1
9.580433995E0,-2.879999876E-1,-1.010000035E-1,2.000000095E-3,3.052032005E-1
9.590170613E0,-3.420000076E-1,-1.280000061E-1,-2.199999988E-2,3.658305711E-1
9.599907534E0,-4.160000086E-1,-1.889999956E-1,-2.000000095E-3,4.569256017E-1
9.609644247E0,-4.600000083E-1,-2.099999934E-1,3.099999949E-2,5.066172173E-1
9.619381092E0,-4.749999940E-1,-2.039999962E-1,1.000000015E-1,5.265367918E-1
9.629117981E0,-4.289999902E-1,-2.010000050E-1,2.210000008E-1,5.227647597E-1
9.638854675E0,-3.359999955E-1,-1.560000032E-1,3.970000148E-1,5.429926424E-1
9.648591500E0,-1.920000017E-1,-8.600000292E-2,5.099999905E-1,5.516883100E-1
9.658328174E0,-2.300000004E-2,9.999999776E-3,5.460000038E-1,5.465757076E-1
9.668065067E0,1.089999974E-1,1.180000007E-1,5.120000243E-1,5.366088189E-1
9.677801915E0,2.380000055E-1,2.150000036E-1,3.420000076E-1,4.688635296E-1
9.687538631E0,3.070000112E-1,2.689999938E-1,1.490000039E-1,4.345238828E-1
9.697275552E0,2.960000038E-1,3.059999943E-1,-4.600000009E-2,4.282148979E-1
9.707012415E0,2.290000021E-1,3.409999907E-1,-2.319999933E-1,4.717478050E-1
9.716749108E0,1.979999989E-1,3.750000000E-1,-3.540000021E-1,5.523993131E-1
9.726485923E0,1.199999973E-1,3.910000026E-1,-4.090000093E-1,5.784133548E-1
9.736222617E0,8.399999887E-2,3.759999871E-1,-3.560000062E-1,5.245645761E-1
9.745959533E0,6.400000304E-2,3.240000010E-1,-2.450000048E-1,4.112140602E-1
9.755696381E0,2.300000004E-2,2.269999981E-1,-9.700000286E-2,2.479253914E-1
9.765433036E0,-4.699999839E-2,1.280000061E-1,4.100000113E-2,1.423868024E-1
9.775169880E0,-1.209999993E-1,3.200000152E-2,1.299999952E-1,1.804577477E-1
9.784906788E0,-1.580000073E-1,-6.199999899E-2,1.720000058E-1,2.416443754E-1
9.794643482E0,-1.420000046E-1,-1.129999980E-1,1.560000032E-1,2.393094271E-1
9.804380318E0,-9.600000083E-2,-1.140000001E-1,1.040000021E-1,1.817360741E-1
9.814117250E0,-3.099999949E-2,-8.100000024E-2,-3.000000026E-3,8.678133444E-2
9.823853944E0,5.400000140E-2,-2.899999917E-2,-1.340000033E-1,1.473533203E-1
9.833590807E0,1.199999973E-1,8.000000380E-3,-2.380000055E-1,2.666608370E-1
9.843327502E0,1.340000033E-1,3.099999949E-2,-3.260000050E-1,3.538262344E-1
9.853064423E0,1.519999951E-1,7.800000161E-2,-3.829999864E-1,4.193769049E-1
9.862801271E0,1.650000066E-1,9.000000358E-2,-3.700000048E-1,4.150000076E-1
9.872537963E0,1.710000038E-1,8.699999750E-2,-3.129999936E-1,3.671225910E-1
9.882274884E0,1.969999969E-1,6.199999899E-2,-2.509999871E-1,3.250446003E-1
9.892011703E0,2.479999959E-1,4.399999976E-2,-1.790000051E-1,3.089999997E-1
9.901748396E0,2.700000107E-1,2.400000021E-2,-9.399999678E-2,2.869006887E-1
9.911485240E0,2.800000012E-1,3.700000048E-2,1.000000047E-3,2.824358347E-1
9.921221934E0,3.050000072E-1,5.299999937E-2,6.599999964E-2,3.165280465E-1
9.930958826E0,3.079999983E-1,1.799999923E-2,9.200000018E-2,3.219503051E-1
9.940695675E0,2.879999876E-1,1.499999966E-2,1.570000052E-1,3.283565052E-1
9.950432587E0,2.380000055E-1,4.199999943E-2,2.029999942E-1,3.156216092E-1
9.960169204E0,1.770000011E-1,3.900000080E-2,2.029999942E-1,2.721378292E-1
9.969906129E0,1.250000000E-1,-1.799999923E-2,2.240000069E-1,2.571478234E-1
9.979642804E0,1.099999994E-2,-5.799999833E-2,2.569999993E-1,2.636930023E-1
9.989379620E0,-1.120000035E-1,-9.099999815E-2,2.700000107E-1,3.061454005E-1
9.999116543E0,-1.850000024E-1,-1.129999980E-1,2.680000067E-1,3.446998753E-1
1.000885324E1,-2.360000014E-1,-1.560000032E-1,2.509999871E-1,3.781970323E-1
1.001859009E1,-2.840000093E-1,-1.759999990E-1,2.029999942E-1,3.909488491E-1
1.002832677E1,-3.300000131E-1,-1.630000025E-1,1.480000019E-1,3.967026721E-1
1.003806369E1,-3.750000000E-1,-1.330000013E-1,1.000000015E-1,4.102608934E-1
1.004780058E1,-4.250000119E-1,-1.110000014E-1,9.300000221E-2,4.489933305E-1
1.005753727E1,-4.230000079E-1,-9.200000018E-2,6.100000069E-2,4.371658802E-1
1.006727418E1,-4.079999924E-1,-7.400000095E-2,3.099999949E-2,4.158136528E-1
1.007701103E1,-3.409999907E-1,-4.600000009E-2,1.600000076E-2,3.444604385E-1
1.008674772E1,-2.820000052E-1,-1.899999939E-2,4.999999888E-3,2.826835739E-1
1.009648464E1,-2.010000050E-1,2.000000095E-3,-1.799999923E-2,2.018142760E-1
1.010622127E1,-1.570000052E-1,5.799999833E-2,-3.700000048E-2,1.714117892E-1
1.011595819E1,-1.099999994E-1,1.059999987E-1,-4.699999839E-2,1.598280309E-1
1.012569501E1,-6.899999827E-2,1.299999952E-1,-1.799999923E-2,1.482733911E-1
1.013543170E1,-1.200000010E-2,1.350000054E-1,2.600000054E-2,1.380036285E-1
1.014516862E1,3.099999949E-2,1.110000014E-1,5.700000003E-2,1.285729376E-1
1.015490546E1,5.099999905E-2,1.019999981E-1,9.499999881E-2,1.484250629E-1
1.016464218E1,9.399999678E-2,8.399999887E-2,1.070000008E-1,1.653511396E-1
1.017437903E1,1.209999993E-1,5.900000036E-2,1.250000000E-1,1.837035652E-1
1.018411596E1,1.350000054E-1,4.399999976E-2,1.209999993E-1,1.865529449E-1
1.019385266E1,7.900000364E-2,4.800000042E-2,1.140000001E-1,1.467685274E-1
1.020358952E1,6.700000167E-2,1.700000092E-2,1.169999987E-1,1.358933403E-1
1.021332644E1,1.059999987E-1,-1.600000076E-2,1.180000007E-1,1.594239628E-1
1.022306312E1,1.360000074E-1,-3.500000015E-2,1.099999994E-1,1.783844217E-1
1.023279997E1,1.309999973E-1,-2.800000086E-2,1.040000021E-1,1.695906830E-1
1.024253690E1,1.430000067E-1,-1.899999939E-2,9.499999881E-2,1.727281148E-1
1.025227359E1,1.500000060E-1,-1.899999939E-2,7.699999958E-2,1.696761672E-1
1.026201044E1,1.570000052E-1,-3.900000080E-2,1.400000043E-2,1.623761119E-1
1.027174717E1,1.270000041E-1,-4.800000042E-2,-2.899999917E-2,1.388308360E-1
1.028148409E1,7.400000095E-2,-6.300000101E-2,-5.700000003E-2,1.126676541E-1
1.029122094E1,9.999999776E-3,-7.000000030E-2,-8.799999952E-2,1.128893261E-1
1.030095765E1,-3.299999982E-2,-9.099999815E-2,-1.420000046E-1,1.718545925E-1
1.031069454E1,-7.100000232E-2,-8.299999684E-2,-1.710000038E-1,2.029063851E-1
1.032043139E1,-9.499999881E-2,-9.200000018E-2,-1.729999930E-1,2.177567390E-1
1.033016810E1,-9.200000018E-2,-6.800000370E-2,-1.220000014E-1,1.672483210E-1
1.033990494E1,-1.260000020E-1,-6.300000101E-2,-1.220000014E-1,1.863571865E-1
1.034964163E1,-1.140000001E-1,-5.799999833E-2,-9.700000286E-2,1.605272574E-1
1.035937855E1,-9.099999815E-2,-5.099999905E-2,-6.599999964E-2,1.234422923E-1
1.036911539E1,-7.100000232E-2,-6.300000101E-2,-1.999999955E-2,9.700515677E-2
1.037885231E1,-4.699999839E-2,-5.799999833E-2,4.300000146E-2,8.615102890E-2
1.038858900E1,-4.300000146E-2,-2.199999988E-2,6.700000167E-2,8.259540147E-2
1.039832585E1,-4.100000113E-2,-1.200000010E-2,1.140000001E-1,1.217415299E-1
1.040806255E1,-1.499999966E-2,-1.000000047E-3,1.289999932E-1,1.298730081E-1
1.041779947E1,-1.000000047E-3,-3.299999982E-2,1.260000020E-1,1.302536007E-1
1.042753632E1,2.700000070E-2,-1.899999939E-2,8.699999750E-2,9.305374565E-2
1.043727302E1,2.400000021E-2,8.999999613E-3,3.599999845E-2,4.419275836E-2
1.044700992E1,8.999999613E-3,2.800000086E-2,1.099999994E-2,3.140063757E-2
1.045674677E1,4.000000190E-3,3.900000080E-2,-4.999999888E-3,3.952214649E-2
1.046648346E1,1.999999955E-2,2.899999917E-2,-2.800000086E-2,4.499999980E-2
1.047622038E1,2.700000070E-2,-1.000000047E-3,-6.100000069E-2,6.671581613E-2
1.048595724E1,9.999999776E-3,0.000000000E0,-4.600000009E-2,4.707440922E-2
1.049569394E1,4.000000190E-3,2.600000054E-2,-8.000000380E-3,2.749545482E-2
1.050543076E1,2.400000021E-2,1.400000043E-2,3.400000185E-2,4.390899848E-2
1.051516768E1,5.499999970E-2,-4.600000009E-2,5.999999866E-2,9.349331428E-2
1.052490438E1,5.200000107E-2,-7.400000095E-2,7.000000030E-2,1.143678289E-1
1.053464123E1,1.600000076E-2,-1.059999987E-1,1.129999980E-1,1.557594277E-1
1.054437791E1,-1.300000027E-2,-1.089999974E-1,1.059999987E-1,1.525975071E-1
1.055411484E1,-5.600000173E-2,-1.040000021E-1,7.800000161E-2,1.415485814E-1
1.056385169E1,-7.800000161E-2,-6.100000069E-2,9.000000358E-2,1.338095698E-1
1.057358835E1,-5.099999905E-2,-4.899999872E-2,2.099999972E-2,7.377668849E-2
1.058332527E1,-4.100000113E-2,-6.000000052E-3,6.000000052E-3,4.186884395E-2
1.059306213E1,-2.300000004E-2,1.899999939E-2,4.699999839E-2,5.566866109E-2
1.060279882E1,-1.899999939E-2,1.600000076E-2,3.999999911E-2,4.708502872E-2
1.061253567E1,8.000000380E-3,1.300000027E-2,1.400000043E-2,2.071231578E-2
1.062227259E1,3.700000048E-2,8.000000380E-3,-8.000000380E-3,3.869108486E-2
1.063200931E1,4.300000146E-2,3.099999949E-2,-1.499999966E-2,5.509083485E-2
1.064174615E1,5.400000140E-2,5.000000075E-2,-1.200000010E-2,7.456540906E-2
1.065148307E1,7.400000095E-2,4.800000042E-2,1.400000043E-2,8.930845533E-2
1.066121976E1,8.299999684E-2,2.800000086E-2,4.699999839E-2,9.940824600E-2
1.067095661E1,6.899999827E-2,8.000000380E-3,8.100000024E-2,1.067052005E-1
1.068069353E1,3.900000080E-2,2.199999988E-2,1.209999993E-1,1.290193780E-1
1.069043022E1,3.400000185E-2,1.300000027E-2,1.190000027E-1,1.244427611E-1
1.070016706E1,4.500000179E-2,2.800000086E-2,1.070000008E-1,1.194068690E-1
1.070990400E1,5.400000140E-2,4.399999976E-2,7.199999690E-2,1.001798367E-1
1.071964070E1,5.000000075E-2,4.500000179E-2,3.400000185E-2,7.537241114E-2
1.072937754E1,6.800000370E-2,3.299999982E-2,2.500000037E-2,7.961156015E-2
1.073911423E1,4.100000113E-2,2.500000037E-2,1.400000043E-2,5.001999724E-2
1.074885115E1,2.899999917E-2,1.300000027E-2,1.499999966E-2,3.514256605E-2
1.075858799E1,-1.300000027E-2,6.000000052E-3,1.300000027E-2,1.933907998E-2
1.076832467E1,-8.000000380E-3,1.799999923E-2,8.999999613E-3,2.165640716E-2
1.077806150E1,-3.000000026E-3,2.400000021E-2,4.999999888E-3,2.469817825E-2
1.078779842E1,-1.600000076E-2,1.300000027E-2,-1.200000010E-2,2.385372159E-2
1.079753513E1,-1.999999955E-2,1.799999923E-2,-4.000000190E-3,2.720294020E-2
1.080727197E1,-3.599999845E-2,1.400000043E-2,-6.000000052E-3,3.908963931E-2
1.081700889E1,-5.400000140E-2,7.000000216E-3,3.000000026E-3,5.453439423E-2
1.082674559E1,-3.599999845E-2,-7.000000216E-3,1.499999966E-2,3.962322402E-2
1.083648245E1,-4.300000146E-2,-1.300000027E-2,1.899999939E-2,4.877499471E-2
1.084621938E1,-6.100000069E-2,-2.099999972E-2,1.200000010E-2,6.562011943E-2
1.085595606E1,-8.299999684E-2,-1.600000076E-2,-1.099999994E-2,8.524083234E-2
1.086569290E1,-1.000000015E-1,1.000000047E-3,-1.099999994E-2,1.006081522E-1
1.087542983E1,-9.000000358E-2,3.000000026E-3,-6.000000052E-3,9.024965731E-2
1.088516653E1,-7.599999756E-2,1.200000010E-2,-2.700000070E-2,8.154139850E-2
1.089490337E1,-4.500000179E-2,2.500000037E-2,-4.100000113E-2,6.581033560E-2
1.090464006E1,-1.999999955E-2,1.000000047E-3,-2.700000070E-2,3.361547293E-2
1.091437698E1,-3.700000048E-2,2.199999988E-2,-1.000000047E-3,4.305810063E-2
1.092411383E1,-4.600000009E-2,4.100000113E-2,3.400000185E-2,7.037755485E-2
1.093385052E1,-2.999999933E-2,2.300000004E-2,4.399999976E-2,5.800861954E-2
1.094358737E1,-3.000000026E-3,8.000000380E-3,5.099999905E-2,5.171073302E-2
1.095332429E1,2.600000054E-2,8.000000380E-3,2.700000070E-2,3.832753673E-2
1.096306099E1,2.600000054E-2,1.200000010E-2,-7.000000216E-3,2.947880651E-2
1.097279784E1,4.000000190E-3,1.700000092E-2,-3.200000152E-2,3.645545405E-2
1.098253478E1,-3.000000026E-3,2.800000086E-2,-1.110000014E-1,1.145163760E-1
1.099227147E1,-6.000000052E-3,6.499999762E-2,-1.480000019E-1,1.617559899E-1
1.100200830E1,-1.099999994E-2,1.209999993E-1,-1.509999931E-1,1.938117585E-1
1.101174523E1,-2.999999933E-2,1.330000013E-1,-1.280000061E-1,1.870106999E-1
1.102148193E1,-3.299999982E-2,1.000000015E-1,-9.300000221E-2,1.404919951E-1
1.103121876E1,-1.799999923E-2,4.699999839E-2,-5.499999970E-2,7.455199386E-2
1.104095569E1,-4.800000042E-2,3.900000080E-2,4.999999888E-3,6.204836905E-2
1.105069240E1,-6.199999899E-2,4.899999872E-2,7.599999756E-2,1.096403182E-1
1.106042924E1,-1.899999939E-2,-4.000000190E-3,1.230000034E-1,1.245230935E-1
1.107016619E1,2.300000004E-2,-8.299999684E-2,1.860000044E-1,2.049731717E-1
1.107990288E1,3.700000048E-2,-1.679999977E-1,1.870000064E-1,2.540905384E-1
1.108963973E1,-8.000000380E-3,-1.770000011E-1,1.809999943E-1,2.532863958E-1
1.109937665E1,-3.099999949E-2,-1.650000066E-1,1.519999951E-1,2.264729579E-1
1.110911334E1,-7.599999756E-2,-1.449999958E-1,7.599999756E-2,1.804909916E-1
1.111885018E1,-6.400000304E-2,-1.169999987E-1,3.500000015E-2,1.378767569E-1
1.112858711E1,-8.000000380E-3,-5.600000173E-2,-5.200000107E-2,7.683749287E-2
1.113832380E1,-3.700000048E-2,-1.300000027E-2,-6.400000304E-2,7.505997889E-2
1.114806064E1,-1.499999966E-2,2.999999933E-2,-8.500000089E-2,9.137833497E-2
1.115779734E1,2.400000021E-2,2.899999917E-2,-9.899999946E-2,1.059150596E-1
1.116753427E1,5.499999970E-2,4.899999872E-2,-5.799999833E-2,9.375499799E-2
1.117727112E1,5.499999970E-2,8.699999750E-2,-6.499999762E-2,1.217333119E-1
1.118700802E1,7.100000232E-2,9.399999678E-2,-6.199999899E-2,1.331202449E-1
1.119674471E1,8.900000155E-2,1.140000001E-1,-3.200000152E-2,1.481249486E-1
1.120648153E1,5.999999866E-2,1.000000015E-1,1.799999923E-2,1.180000005E-1
1.121621823E1,1.899999939E-2,1.059999987E-1,5.999999866E-2,1.232761110E-1
1.122595515E1,2.500000037E-2,8.699999750E-2,1.059999987E-1,1.393915324E-1
1.123569200E1,1.799999923E-2,3.799999878E-2,1.819999963E-1,1.867940003E-1
1.124542872E1,9.999999776E-3,1.400000043E-2,2.469999939E-1,2.475984592E-1
1.125516561E1,-1.000000047E-3,3.000000026E-3,2.739999890E-1,2.740182366E-1
1.126490246E1,-4.300000146E-2,2.300000004E-2,2.730000019E-1,2.773211156E-1
1.127463916E1,-4.399999976E-2,1.899999939E-2,2.360000014E-1,2.408173595E-1
1.128437608E1,-8.999999613E-3,3.200000152E-2,1.840000004E-1,1.869786090E-1
1.129411294E1,2.099999972E-2,7.000000216E-3,1.190000027E-1,1.210413179E-1
1.130384964E1,1.799999923E-2,7.000000216E-3,5.799999833E-2,6.113100508E-2
1.131358650E1,8.000000380E-3,-1.000000047E-3,7.000000216E-3,1.067707868E-2
1.132332342E1,1.400000043E-2,4.000000190E-3,-4.199999943E-2,4.445222116E-2
1.133306009E1,3.099999949E-2,-1.000000047E-3,-7.199999690E-2,7.839642544E-2
1.134279694E1,1.300000027E-2,0.000000000E0,-1.010000035E-1,1.018332005E-1
1.135253387E1,2.700000070E-2,1.000000047E-3,-1.159999967E-1,1.191049926E-1
1.136227057E1,2.899999917E-2,3.000000026E-3,-1.129999980E-1,1.167004692E-1
1.137200742E1,3.700000048E-2,1.899999939E-2,-9.099999815E-2,1.000549833E-1
1.138174435E1,2.199999988E-2,1.400000043E-2,-9.700000286E-2,1.004440171E-1
1.139148103E1,8.999999613E-3,7.000000216E-3,-6.499999762E-2,6.599242143E-2
1.140121788E1,1.300000027E-2,3.099999949E-2,-5.600000173E-2,6.531462447E-2
1.141095479E1,1.700000092E-2,4.300000146E-2,-3.700000048E-2,5.921993070E-2
1.142069147E1,3.900000080E-2,1.200000010E-2,-4.999999888E-3,4.110961036E-2
1.143042833E1,1.499999966E-2,3.200000152E-2,-3.799999878E-2,5.189412293E-2
1.144016525E1,-5.900000036E-2,2.700000070E-2,-6.300000101E-2,9.043782509E-2
1.144990196E1,-8.100000024E-2,2.000000095E-3,-5.799999833E-2,9.964436685E-2
1.145963880E1,-4.100000113E-2,-5.000000075E-2,-5.000000075E-2,8.173738583E-2
1.146937574E1,-5.299999937E-2,-9.000000358E-2,-4.100000113E-2,1.122051722E-1
1.147911243E1,-8.799999952E-2,-9.300000221E-2,2.000000095E-3,1.280507725E-1
1.148884927E1,-1.169999987E-1,-9.600000083E-2,2.999999933E-2,1.542886898E-1
1.149858619E1,-1.250000000E-1,-7.999999821E-2,5.900000036E-2,1.597059791E-1
1.150832287E1,-1.230000034E-1,-7.500000298E-2,1.019999981E-1,1.765162907E-1
1.151805971E1,-7.500000298E-2,-2.600000054E-2,1.389999986E-1,1.600687355E-1
1.152779644E1,-2.199999988E-2,-1.799999923E-2,1.309999973E-1,1.340484959E-1
1.153753336E1,2.400000021E-2,1.000000047E-3,1.250000000E-1,1.272870772E-1
1.154727022E1,8.500000089E-2,3.099999949E-2,9.399999678E-2,1.304683851E-1
1.155700714E1,1.030000001E-1,7.999999821E-2,5.499999970E-2,1.415415123E-1
1.156674385E1,1.360000074E-1,1.059999987E-1,1.499999966E-2,1.730809109E-1
1.157648068E1,1.480000019E-1,1.099999994E-1,-2.099999972E-2,1.855936433E-1
1.158621738E1,1.449999958E-1,8.699999750E-2,-3.200000152E-2,1.720988043E-1
1.159595430E1,1.089999974E-1,3.799999878E-2,-3.999999911E-2,1.221679142E-1
1.160569117E1,9.399999678E-2,-3.000000026E-3,-7.599999756E-2,1.209173231E-1
1.161542786E1,4.600000009E-2,-1.300000027E-2,-8.900000155E-2,1.010247509E-1
1.162516477E1,1.000000047E-3,-8.000000380E-3,-7.500000298E-2,7.543209167E-2
1.163490162E1,-2.700000070E-2,-7.000000216E-3,-9.399999678E-2,9.805100426E-2
1.164463830E1,-3.700000048E-2,-3.099999949E-2,-8.299999684E-2,9.601562102E-2
1.165437522E1,-5.600000173E-2,-9.999999776E-3,-6.899999827E-2,8.942594674E-2
1.166411206E1,-6.899999827E-2,3.500000015E-2,-3.599999845E-2,8.533463342E-2
1.167384877E1,-1.600000076E-2,7.000000216E-3,-4.999999888E-3,1.816590285E-2
1.168358569E1,3.299999982E-2,-3.599999845E-2,4.300000146E-2,6.506919396E-2
1.169332258E1,-4.699999839E-2,-4.600000009E-2,8.200000226E-2,1.051142247E-1
1.170305950E1,-9.000000358E-2,-7.699999958E-2,1.099999994E-1,1.616446734E-1
1.171279613E1,-7.000000030E-2,-9.099999815E-2,1.220000014E-1,1.675261175E-1
1.172253305E1,-4.300000146E-2,-1.000000015E-1,1.319999993E-1,1.710935424E-1
1.173226974E1,-3.700000048E-2,-7.800000161E-2,8.699999750E-2,1.225642682E-1
1.174200660E1,-1.200000010E-2,-3.700000048E-2,4.699999839E-2,6.100819524E-2
1.175174352E1,-4.300000146E-2,-2.199999988E-2,0.000000000E0,4.830113995E-2
1.176148044E1,-8.200000226E-2,-1.799999923E-2,-3.400000185E-2,9.057593758E-2
1.177121714E1,-6.300000101E-2,-1.499999966E-2,-4.800000042E-2,8.061017403E-2
1.178095399E1,4.000000190E-3,-2.000000095E-3,-1.499999966E-2,1.565247558E-2
1.179069067E1,3.599999845E-2,-8.999999613E-3,-4.000000190E-3,3.732291365E-2
1.180042759E1,4.899999872E-2,-4.999999888E-3,1.600000076E-2,5.178802852E-2
1.181016440E1,4.600000009E-2,9.999999776E-3,3.299999982E-2,5.748912934E-2
1.181990109E1,4.300000146E-2,1.600000076E-2,2.800000086E-2,5.374942045E-2
1.182963802E1,5.000000075E-2,2.600000054E-2,4.000000190E-3,5.649778849E-2
1.183937486E1,5.700000003E-2,3.700000048E-2,-4.999999888E-3,6.813956294E-2
1.184911155E1,7.000000030E-2,4.300000146E-2,1.600000076E-2,8.369587918E-2
1.185884847E1,8.600000292E-2,2.999999933E-2,-3.000000026E-3,9.113177526E-2
1.186858532E1,8.799999952E-2,1.799999923E-2,1.999999955E-2,9.202173586E-2
1.187832201E1,6.800000370E-2,2.800000086E-2,6.800000370E-2,1.001598775E-1
1.188805890E1,7.400000095E-2,3.700000048E-2,7.800000161E-2,1.137057625E-1
1.189779576E1,8.699999750E-2,2.999999933E-2,7.299999893E-2,1.174648857E-1
1.190753268E1,1.250000000E-1,2.500000037E-2,1.070000008E-1,1.664301661E-1
1.191726937E1,1.099999994E-1,3.999999911E-2,1.049999967E-1,1.572418491E-1
1.192700620E1,7.999999821E-2,3.900000080E-2,6.499999762E-2,1.102088901E-1
1.193674289E1,5.900000036E-2,1.300000027E-2,5.200000107E-2,7.971198254E-2
1.194647979E1,3.599999845E-2,-8.999999613E-3,4.699999839E-2,5.988321743E-2
1.195621664E1,2.899999917E-2,-2.099999972E-2,3.799999878E-2,5.221110846E-2
1.196595334E1,3.200000152E-2,-1.899999939E-2,1.700000092E-2,4.091454638E-2
1.197569026E1,1.799999923E-2,-2.300000004E-2,-1.099999994E-2,3.120897263E-2
1.198542708E1,3.000000026E-3,-1.700000092E-2,-1.200000010E-2,2.102379685E-2
1.199516377E1,-4.999999888E-3,-2.800000086E-2,-6.000000052E-3,2.906888453E-2
1.200490072E1,-6.000000052E-3,-2.800000086E-2,-8.999999613E-3,3.001666274E-2
1.201463757E1,-8.000000380E-3,-2.600000054E-2,-2.300000004E-2,3.562302677E-2
1.202437447E1,-1.600000076E-2,-2.199999988E-2,-1.899999939E-2,3.318131998E-2
1.203411116E1,-1.600000076E-2,-3.200000152E-2,-3.799999878E-2,5.219195368E-2
1.204384801E1,-2.899999917E-2,-1.400000043E-2,-4.500000179E-2,5.533534246E-2
1.205358493E1,-3.599999845E-2,8.999999613E-3,-3.500000015E-2,5.100980192E-2
1.206332163E1,1.000000047E-3,-8.000000380E-3,-5.499999970E-2,5.558776820E-2
1.207305847E1,1.499999966E-2,3.000000026E-3,-3.900000080E-2,4.189272076E-2
1.208279516E1,1.999999955E-2,1.300000027E-2,-4.999999888E-3,2.437211497E-2
1.209253210E1,1.400000043E-2,3.000000026E-3,-8.000000380E-3,1.640122003E-2
1.210226902E1,4.000000190E-3,4.999999888E-3,9.999999776E-3,1.187434192E-2
1.211200586E1,-8.000000380E-3,-2.000000095E-3,5.000000075E-2,5.067543864E-2
1.212174255E1,-6.000000052E-3,-8.000000380E-3,4.199999943E-2,4.317406582E-2
1.213147950E1,2.000000095E-3,-2.099999972E-2,3.500000015E-2,4.086563347E-2
1.214121634E1,4.000000190E-3,-1.300000027E-2,3.400000185E-2,3.661966868E-2
1.215095305E1,2.099999972E-2,-1.700000092E-2,4.800000042E-2,5.508175796E-2
1.216068997E1,-1.499999966E-2,7.000000216E-3,3.799999878E-2,4.144876235E-2
1.217042685E1,-3.200000152E-2,3.400000185E-2,2.300000004E-2,5.204805688E-2
1.218016354E1,-8.000000380E-3,3.599999845E-2,3.400000185E-2,5.015974502E-2
1.218990045E1,7.000000216E-3,3.200000152E-2,5.799999833E-2,6.661080923E-2
1.219963730E1,1.600000076E-2,1.200000010E-2,6.899999827E-2,7.184009875E-2
1.220937400E1,3.200000152E-2,2.600000054E-2,8.799999952E-2,9.718024512E-2
1.221911095E1,3.999999911E-2,2.600000054E-2,7.000000030E-2,8.471127433E-2
1.222884780E1,6.700000167E-2,4.199999943E-2,7.000000030E-2,1.056077659E-1
1.223858450E1,3.500000015E-2,3.400000185E-2,6.700000167E-2,8.288546531E-2
1.224832142E1,1.400000043E-2,3.200000152E-2,6.800000370E-2,7.644606342E-2
1.225805825E1,2.600000054E-2,-1.200000010E-2,3.200000152E-2,4.294182259E-2
1.226779517E1,1.200000010E-2,-2.700000070E-2,-7.000000216E-3,3.036445362E-2
1.227753188E1,-1.300000027E-2,-1.700000092E-2,-5.200000107E-2,5.623166501E-2
1.228726872E1,-5.900000036E-2,-3.000000026E-3,-7.599999756E-2,9.626006270E-2
1.229700562E1,-7.000000030E-2,-8.000000380E-3,-9.399999678E-2,1.174733989E-1
1.230674231E1,-7.100000232E-2,-3.500000015E-2,-1.199999973E-1,1.437567379E-1
1.231647915E1,-7.100000232E-2,0.000000000E0,-1.199999973E-1,1.394309854E-1
1.232621607E1,-8.399999887E-2,4.600000009E-2,-7.199999690E-2,1.198165238E-1
1.233595276E1,-4.500000179E-2,2.400000021E-2,-2.400000021E-2,5.636488429E-2
1.234568962E1,-2.899999917E-2,-3.000000026E-3,3.500000015E-2,4.555216748E-2
1.235542654E1,-4.399999976E-2,-5.200000107E-2,1.159999967E-1,1.345213712E-1
1.236516349E1,-5.700000003E-2,-9.399999678E-2,1.710000038E-1,2.032879748E-1
1.237490010E1,-8.399999887E-2,-6.800000370E-2,2.000000030E-1,2.273323591E-1
1.238463702E1,-8.500000089E-2,-5.999999866E-2,1.829999983E-1,2.105089057E-1
1.239437372E1,-6.499999762E-2,-4.500000179E-2,1.159999967E-1,1.403780577E-1
1.240411061E1,-8.399999887E-2,-3.000000026E-3,6.400000304E-2,1.056456350E-1
1.241384744E1,-8.900000155E-2,0.000000000E0,-2.000000095E-3,8.902247063E-2
1.242358413E1,-7.400000095E-2,9.999999776E-3,-3.400000185E-2,8.204876759E-2
1.243332105E1,-7.400000095E-2,1.400000043E-2,-5.499999970E-2,9.325770810E-2
1.244305790E1,-3.000000026E-3,3.799999878E-2,-3.599999845E-2,5.243090497E-2
1.245279482E1,2.999999933E-2,1.999999955E-2,-4.600000009E-2,5.844655636E-2
1.246253151E1,6.100000069E-2,-1.000000047E-3,-3.200000152E-2,6.889121991E-2
1.247226835E1,6.899999827E-2,1.400000043E-2,-1.200000010E-2,7.142128377E-2
1.248200527E1,5.700000003E-2,-1.000000047E-3,1.000000047E-3,5.701754119E-2
1.249174199E1,6.199999899E-2,1.000000047E-3,1.999999955E-2,6.515366342E-2
1.250147891E1,6.899999827E-2,0.000000000E0,3.200000152E-2,7.605918655E-2
1.251121574E1,6.400000304E-2,-3.000000026E-3,3.900000080E-2,7.500666938E-2
1.252095244E1,6.400000304E-2,4.000000190E-3,2.700000070E-2,6.957729823E-2
1.253068936E1,5.900000036E-2,2.000000095E-3,3.200000152E-2,6.714908890E-2
1.254042619E1,3.599999845E-2,1.300000027E-2,3.000000026E-3,3.839270628E-2
1.255016288E1,3.400000185E-2,1.499999966E-2,-1.700000092E-2,4.086563528E-2
1.255989973E1,4.199999943E-2,2.199999988E-2,-6.700000167E-2,8.207923106E-2
1.256963665E1,3.900000080E-2,3.299999982E-2,-6.800000370E-2,8.505292795E-2
1.257937335E1,3.400000185E-2,2.899999917E-2,-5.799999833E-2,7.321884924E-2
1.258911027E1,1.000000047E-3,1.700000092E-2,-5.499999970E-2,5.757603667E-2
1.259884712E1,-3.299999982E-2,1.700000092E-2,-9.999999776E-3,3.844476577E-2
1.260858403E1,-2.999999933E-2,-1.200000010E-2,3.099999949E-2,4.477722558E-2
1.261832072E1,-4.699999839E-2,-3.400000185E-2,6.199999899E-2,8.490582930E-2
1.262805756E1,-7.999999821E-2,-3.799999878E-2,9.200000018E-2,1.277027786E-1
1.263779448E1,-9.700000286E-2,-2.700000070E-2,1.220000014E-1,1.581834407E-1
1.264753117E1,-1.089999974E-1,-2.700000070E-2,1.070000008E-1,1.551096375E-1
1.265726810E1,-1.150000021E-1,-2.199999988E-2,9.499999881E-2,1.507779833E-1
1.266700493E1,-1.089999974E-1,-1.799999923E-2,5.600000173E-2,1.238587889E-1
1.267674162E1,-5.299999937E-2,-8.999999613E-3,1.300000027E-2,5.530822664E-2
1.268647854E1,-4.500000179E-2,2.600000054E-2,-6.000000052E-3,5.231634725E-2
1.269621540E1,-2.500000037E-2,5.799999833E-2,-6.599999964E-2,9.135097032E-2
1.270595231E1,7.000000216E-3,5.299999937E-2,-7.100000232E-2,8.887632006E-2
1.271568900E1,3.299999982E-2,6.100000069E-2,-5.700000003E-2,8.977193367E-2
1.272542585E1,3.599999845E-2,3.299999982E-2,-2.400000021E-2,5.441507040E-2
1.273516277E1,2.400000021E-2,2.700000070E-2,2.700000070E-2,4.509989008E-2
1.274489947E1,8.000000380E-3,-3.000000026E-3,8.799999952E-2,8.841379939E-2
1.275463631E1,-1.999999955E-2,-3.599999845E-2,1.040000021E-1,1.118570530E-1
1.276437320E1,-4.100000113E-2,-6.499999762E-2,1.309999973E-1,1.518782376E-1
1.277410990E1,-5.499999970E-2,-7.500000298E-2,1.480000019E-1,1.747970279E-1
1.278384674E1,-5.700000003E-2,-7.299999893E-2,9.899999946E-2,1.355691696E-1
1.279358367E1,-5.400000140E-2,-7.199999690E-2,4.899999872E-2,1.024743850E-1
1.280332037E1,-3.799999878E-2,-2.800000086E-2,0.000000000E0,4.720169441E-2
1.281305729E1,-2.500000037E-2,-4.999999888E-3,-2.500000037E-2,3.570714265E-2
1.282279414E1,0.000000000E0,-2.000000095E-3,-5.999999866E-2,6.003332274E-2
1.283253083E1,4.000000190E-3,1.300000027E-2,-7.599999756E-2,7.720751024E-2
1.284226775E1,2.600000054E-2,1.499999966E-2,-7.500000298E-2,8.078366459E-2
1.285200460E1,2.800000086E-2,3.999999911E-2,-9.200000018E-2,1.041537326E-1
1.286174154E1,3.999999911E-2,3.700000048E-2,-7.599999756E-2,9.351470255E-2
1.287147821E1,1.499999966E-2,5.299999937E-2,-5.700000003E-2,7.926537660E-2
1.288121514E1,2.099999972E-2,3.900000080E-2,-2.500000037E-2,5.086256059E-2
1.289095199E1,4.399999976E-2,4.000000190E-3,4.300000146E-2,6.165225143E-2
1.290068868E1,4.699999839E-2,-1.000000047E-3,1.080000028E-1,1.177879470E-1
1.291042555E1,3.599999845E-2,-8.999999613E-3,1.340000033E-1,1.390431616E-1
1.292016248E1,1.600000076E-2,-8.999999613E-3,1.420000046E-1,1.431817074E-1
1.292989941E1,-2.000000095E-3,0.000000000E0,1.439999938E-1,1.440138820E-1
1.293963610E1,-1.799999923E-2,-4.999999888E-3,1.080000028E-1,1.096038347E-1
1.294937297E1,0.000000000E0,-2.099999972E-2,6.499999762E-2,6.830812308E-2
1.295910989E1,1.999999955E-2,-2.899999917E-2,2.999999933E-2,4.627094005E-2
1.296884658E1,1.799999923E-2,-9.999999776E-3,-1.400000043E-2,2.489979879E-2
1.297858342E1,0.000000000E0,3.099999949E-2,-3.999999911E-2,5.060632270E-2
1.298832035E1,-8.000000380E-3,2.700000070E-2,-6.300000101E-2,6.900724724E-2
1.299805704E1,1.799999923E-2,1.099999994E-2,-5.799999833E-2,6.171709469E-2
1.300779397E1,3.900000080E-2,1.499999966E-2,-5.999999866E-2,7.311634490E-2
1.301753082E1,4.800000042E-2,4.100000113E-2,-7.299999893E-2,9.650906681E-2
1.302726751E1,3.799999878E-2,5.999999866E-2,-5.099999905E-2,8.743568865E-2
1.303700443E1,5.799999833E-2,4.600000009E-2,-8.999999613E-3,7.457211146E-2
1.304674128E1,7.599999756E-2,-2.199999988E-2,2.800000086E-2,8.392853908E-2
1.305647820E1,2.999999933E-2,-7.100000232E-2,6.400000304E-2,1.001848326E-1
1.306621488E1,-2.600000054E-2,-7.800000161E-2,1.000000015E-1,1.294604209E-1
1.307595180E1,-6.100000069E-2,-9.300000221E-2,9.499999881E-2,1.462702987E-1
1.308568864E1,-7.100000232E-2,-1.010000035E-1,8.799999952E-2,1.516113484E-1
1.309542533E1,-8.900000155E-2,-7.299999893E-2,6.800000370E-2,1.336936821E-1
1.310516228E1,-1.000000015E-1,-5.499999970E-2,2.500000037E-2,1.168332157E-1
1.311489913E1,-9.499999881E-2,-4.800000042E-2,4.999999888E-3,1.065551492E-1
1.312463606E1,-6.700000167E-2,-3.200000152E-2,2.199999988E-2,7.744030162E-2
1.313437275E1,-1.600000076E-2,-1.300000027E-2,1.099999994E-2,2.336664353E-2
1.314410960E1,4.800000042E-2,1.200000010E-2,1.400000043E-2,5.141984106E-2
1.315384633E1,1.110000014E-1,-2.000000095E-3,4.999999888E-3,1.111305553E-1
1.316358324E1,1.289999932E-1,4.699999839E-2,-2.300000004E-2,1.392084699E-1
1.317332009E1,1.340000033E-1,5.799999833E-2,-5.099999905E-2,1.546641542E-1
1.318305698E1,1.280000061E-1,5.600000173E-2,-7.999999821E-2,1.609968989E-1
1.319279368E1,9.899999946E-2,3.200000152E-2,-4.800000042E-2,1.145818486E-1
1.320253062E1,6.700000167E-2,8.999999613E-3,-4.600000009E-2,8.176796576E-2
1.321226745E1,3.900000080E-2,-1.000000047E-3,1.700000092E-2,4.255584677E-2
1.322200414E1,2.999999933E-2,1.000000047E-3,8.299999684E-2,8.826097346E-2
1.323174107E1,4.399999976E-2,0.000000000E0,1.459999979E-1,1.524860628E-1
1.324147792E1,6.199999899E-2,-1.200000010E-2,2.099999934E-1,2.192897561E-1
1.325121484E1,7.900000364E-2,1.499999966E-2,2.210000008E-1,2.351744054E-1
1.326095154E1,3.099999949E-2,4.100000113E-2,1.659999937E-1,1.737757117E-1
1.327068845E1,-2.000000095E-3,5.299999937E-2,1.509999931E-1,1.600437373E-1
1.328042530E1,1.099999994E-2,4.300000146E-2,1.159999967E-1,1.242014466E-1
1.329016199E1,-4.999999888E-3,3.099999949E-2,3.099999949E-2,4.412482222E-2
1.329989891E1,-1.600000076E-2,8.999999613E-3,-2.199999988E-2,2.865309777E-2
1.330963576E1,-4.500000179E-2,3.099999949E-2,-5.799999833E-2,7.968688685E-2
1.331937245E1,-6.800000370E-2,7.000000030E-2,-6.300000101E-2,1.161593762E-1
1.332910935E1,-4.199999943E-2,8.600000292E-2,-4.899999872E-2,1.075220923E-1
1.333884620E1,-2.400000021E-2,5.700000003E-2,-1.999999955E-2,6.499999997E-2
1.334858314E1,-3.000000026E-3,3.200000152E-2,3.299999982E-2,4.606517215E-2
1.335831983E1,-3.200000152E-2,3.400000185E-2,7.599999756E-2,8.919641165E-2
1.336805665E1,-3.500000015E-2,2.800000086E-2,7.699999958E-2,8.909545440E-2
1.337779358E1,-4.199999943E-2,1.700000092E-2,6.100000069E-2,7.598684141E-2
1.338753026E1,-5.200000107E-2,2.600000054E-2,3.299999982E-2,6.685058061E-2
1.339726718E1,-4.300000146E-2,2.300000004E-2,-6.000000052E-3,4.913247529E-2
1.340700402E1,-2.700000070E-2,9.999999776E-3,-3.999999911E-2,4.928488573E-2
1.341674094E1,-2.700000070E-2,4.999999888E-3,-5.099999905E-2,5.792236131E-2
1.342647762E1,-3.999999911E-2,2.000000095E-3,-5.200000107E-2,6.563535663E-2
1.343621447E1,-5.600000173E-2,8.000000380E-3,-5.000000075E-2,7.549834617E-2
1.344595139E1,-5.499999970E-2,-1.600000076E-2,-4.999999888E-3,5.749782596E-2
1.345568809E1,-5.400000140E-2,-2.400000021E-2,2.600000054E-2,6.456005103E-2
1.346542502E1,-5.400000140E-2,-3.400000185E-2,5.499999970E-2,8.424369558E-2
1.347516187E1,-6.400000304E-2,-2.999999933E-2,9.399999678E-2,1.176095223E-1
1.348489854E1,-7.999999821E-2,-2.700000070E-2,9.799999744E-2,1.293560948E-1
1.349463549E1,-6.899999827E-2,-2.899999917E-2,9.600000083E-2,1.217292071E-1
1.350437241E1,-4.800000042E-2,-1.899999939E-2,9.099999815E-2,1.046231317E-1
1.351410925E1,-4.300000146E-2,-2.500000037E-2,8.200000226E-2,9.590620687E-2
1.352384595E1,-4.699999839E-2,-3.700000048E-2,2.199999988E-2,6.373382053E-2
1.353358288E1,-5.999999866E-2,-1.899999939E-2,2.300000004E-2,6.700746091E-2
1.354331973E1,-5.999999866E-2,-7.000000216E-3,-8.000000380E-3,6.093438970E-2
1.355305642E1,-3.200000152E-2,4.999999888E-3,-4.600000009E-2,5.625833364E-2
1.356279334E1,-4.000000190E-3,-8.000000380E-3,-6.599999964E-2,6.660330292E-2
1.357253019E1,-2.000000095E-3,-7.000000216E-3,-8.699999750E-2,8.730406387E-2
1.358226711E1,2.999999933E-2,-1.400000043E-2,-1.159999967E-1,1.206316675E-1
1.359200381E1,2.700000070E-2,-3.200000152E-2,-7.699999958E-2,8.764701975E-2
1.360174065E1,9.999999776E-3,-4.999999888E-3,-3.700000048E-2,3.865229656E-2
1.361147761E1,3.599999845E-2,6.000000052E-3,2.000000095E-3,3.655133225E-2
1.362121430E1,4.100000113E-2,1.300000027E-2,4.100000113E-2,5.942221969E-2
1.363095124E1,5.400000140E-2,1.000000047E-3,6.199999899E-2,8.222530040E-2
1.364068808E1,4.800000042E-2,-1.899999939E-2,7.400000095E-2,9.022749114E-2
1.365042499E1,2.899999917E-2,-2.999999933E-2,2.800000086E-2,5.024937771E-2
1.366016167E1,5.099999905E-2,-9.999999776E-3,-1.799999923E-2,5.499999882E-2
1.366989860E1,6.199999899E-2,4.500000179E-2,-7.500000298E-2,1.072100764E-1
1.367963544E1,8.299999684E-2,6.599999964E-2,-1.360000074E-1,1.724557956E-1
1.368937211E1,1.239999980E-1,8.699999750E-2,-1.570000052E-1,2.181604930E-1
1.369910903E1,1.330000013E-1,7.100000232E-2,-1.519999951E-1,2.140887648E-1
1.370884589E1,4.600000009E-2,3.299999982E-2,-1.599999964E-1,1.697203549E-1
1.371858258E1,-3.500000015E-2,-1.999999955E-2,-1.289999932E-1,1.351517600E-1
1.372831950E1,-7.500000298E-2,-6.400000304E-2,-3.599999845E-2,1.049619013E-1
1.373805635E1,8.000000380E-3,-1.180000007E-1,5.999999866E-2,1.326197573E-1
1.374779326E1,-1.089999974E-1,-1.879999936E-1,1.500000060E-1,2.640549163E-1
1.375752995E1,-7.699999958E-2,-1.389999986E-1,1.949999928E-1,2.515452181E-1
1.376726688E1,-2.199999988E-1,-6.199999899E-2,1.959999949E-1,3.010979863E-1
1.377700372E1,-2.020000070E-1,-6.599999964E-2,1.920000017E-1,2.863983300E-1
1.378674040E1,-1.379999965E-1,-5.799999833E-2,1.420000046E-1,2.063298335E-1
1.379647732E1,-1.330000013E-1,-5.400000140E-2,1.070000008E-1,1.790363110E-1
1.380621416E1,-1.609999985E-1,-4.999999888E-3,6.700000167E-2,1.744562975E-1
1.381595108E1,-1.710000038E-1,8.000000380E-3,5.999999866E-2,1.813973571E-1
1.382568778E1,-1.439999938E-1,2.099999972E-2,7.199999690E-2,1.623607026E-1
1.383542470E1,-1.150000021E-1,2.999999933E-2,5.099999905E-2,1.293290391E-1
1.384516155E1,-5.700000003E-2,1.400000043E-2,4.899999872E-2,7.645913869E-2
1.385489847E1,-3.799999878E-2,2.300000004E-2,4.300000146E-2,6.182232635E-2
1.386463516E1,-4.199999943E-2,3.400000185E-2,2.899999917E-2,6.132699267E-2
1.387437208E1,-3.900000080E-2,5.600000173E-2,3.999999911E-2,7.910120217E-2
1.388410893E1,-1.200000010E-2,1.899999939E-2,2.600000054E-2,3.436568066E-2
1.389384563E1,1.000000047E-3,-1.099999994E-2,5.900000036E-2,6.002499514E-2
1.390358255E1,-4.999999888E-3,-2.099999972E-2,8.100000024E-2,8.382720337E-2
1.391331939E1,3.000000026E-3,-3.400000185E-2,8.299999684E-2,8.974407836E-2
1.392305608E1,-4.999999888E-3,-4.800000042E-2,1.000000015E-1,1.110360317E-1
1.393279301E1,2.099999972E-2,-4.399999976E-2,8.500000089E-2,9.798979599E-2
1.394252986E1,3.599999845E-2,-3.700000048E-2,4.600000009E-2,6.914477516E-2
1.395226677E1,4.500000179E-2,-1.899999939E-2,-1.300000027E-2,5.054700926E-2
1.396200347E1,5.999999866E-2,0.000000000E0,-5.000000075E-2,7.810249621E-2
1.397174041E1,7.199999690E-2,1.899999939E-2,-7.500000298E-2,1.056882206E-1
1.398147726E1,7.199999690E-2,1.200000010E-2,-1.169999987E-1,1.379021365E-1
1.399121417E1,5.799999833E-2,0.000000000E0,-1.230000034E-1,1.359889725E-1
1.400095087E1,4.899999872E-2,-1.200000010E-2,-1.230000034E-1,1.329435997E-1
1.401068772E1,2.999999933E-2,-6.000000052E-3,-1.239999980E-1,1.277184382E-1
1.402042464E1,2.800000086E-2,-2.000000095E-3,-1.190000027E-1,1.222661061E-1
1.403016133E1,1.300000027E-2,-9.999999776E-3,-1.049999967E-1,1.062732295E-1
1.403989826E1,-2.000000095E-3,-1.300000027E-2,-7.000000030E-2,7.122499596E-2
1.404963513E1,-1.700000092E-2,-1.499999966E-2,-4.100000113E-2,4.685082832E-2
1.405937205E1,-2.099999972E-2,-1.499999966E-2,-6.000000052E-3,2.649528220E-2
1.406910875E1,-7.000000216E-3,-3.299999982E-2,2.999999933E-2,4.514421282E-2
1.407884567E1,2.199999988E-2,-1.700000092E-2,5.999999866E-2,6.612866145E-2
1.408858253E1,6.899999827E-2,4.999999888E-3,7.500000298E-2,1.020343090E-1
1.409831922E1,3.099999949E-2,2.800000086E-2,4.100000113E-2,5.853204345E-2
1.410805613E1,-7.800000161E-2,4.399999976E-2,3.599999845E-2,9.651942871E-2
1.411779298E1,-2.600000054E-2,2.999999933E-2,1.999999955E-2,4.445222120E-2
1.412752965E1,-1.099999994E-2,9.999999776E-3,4.300000146E-2,4.549725398E-2
1.413726655E1,-3.700000048E-2,0.000000000E0,7.299999893E-2,8.184130912E-2
1.414700340E1,-6.400000304E-2,6.000000052E-3,1.080000028E-1,1.256821427E-1
1.415674032E1,-5.900000036E-2,-8.999999613E-3,1.480000019E-1,1.595807025E-1
1.416647700E1,-1.999999955E-2,-3.099999949E-2,1.539999992E-1,1.583571902E-1
1.417621392E1,7.000000216E-3,-3.500000015E-2,1.469999999E-1,1.512712794E-1
1.418595081E1,2.000000095E-3,-4.699999839E-2,1.099999994E-1,1.196369496E-1
1.419568773E1,1.200000010E-2,-2.600000054E-2,5.499999970E-2,6.200806397E-2
1.420542443E1,1.099999994E-2,0.000000000E0,0.000000000E0,1.099999994E-2
1.421516135E1,2.199999988E-2,3.500000015E-2,-1.499999966E-2,4.397726680E-2
1.422489820E1,3.500000015E-2,2.999999933E-2,-4.800000042E-2,6.655073260E-2
1.423463490E1,3.799999878E-2,5.099999905E-2,-5.499999970E-2,8.408329071E-2
1.424437181E1,4.399999976E-2,7.000000030E-2,-4.399999976E-2,9.365895579E-2
1.425410864E1,7.400000095E-2,4.600000009E-2,-3.400000185E-2,9.353074508E-2
1.426384556E1,5.499999970E-2,2.400000021E-2,-5.000000075E-2,7.810889867E-2
1.427358228E1,5.400000140E-2,9.999999776E-3,-3.099999949E-2,6.306346102E-2
1.428331920E1,4.500000179E-2,0.000000000E0,-3.099999949E-2,5.464430555E-2
1.429305604E1,5.600000173E-2,4.999999888E-3,-4.999999888E-3,5.644466486E-2
1.430279296E1,2.899999917E-2,-2.300000004E-2,2.400000021E-2,4.411348959E-2
1.431252965E1,2.500000037E-2,-1.899999939E-2,5.499999970E-2,6.333245584E-2
1.432226657E1,3.299999982E-2,-6.100000069E-2,4.500000179E-2,8.267406022E-2
1.433200340E1,3.299999982E-2,-7.299999893E-2,1.600000076E-2,8.169455218E-2
1.434174032E1,2.999999933E-2,-3.500000015E-2,-8.000000380E-3,4.678675001E-2
1.435147701E1,-1.200000010E-2,1.999999955E-2,-3.700000048E-2,4.373785568E-2
1.436121385E1,-2.500000037E-2,2.899999917E-2,-6.100000069E-2,7.202083069E-2
1.437095051E1,1.899999939E-2,-1.300000027E-2,-9.700000286E-2,9.969453615E-2
1.438068743E1,3.400000185E-2,-2.600000054E-2,-1.169999987E-1,1.245833048E-1
1.439042428E1,-2.500000037E-2,8.000000380E-3,-1.059999987E-1,1.092016472E-1
1.440016120E1,-2.700000070E-2,5.799999833E-2,-6.700000167E-2,9.263908499E-2
1.440989792E1,2.999999933E-2,2.700000070E-2,1.600000076E-2,4.341658694E-2
1.441963484E1,2.999999933E-2,-6.199999899E-2,1.120000035E-1,1.314838416E-1
1.442937173E1,-8.000000380E-3,-1.099999994E-1,1.940000057E-1,2.231591407E-1
1.443910865E1,-8.200000226E-2,-1.040000021E-1,2.370000035E-1,2.714940192E-1
1.444884533E1,-8.900000155E-2,-8.299999684E-2,2.529999912E-1,2.807472089E-1
1.445858226E1,-7.900000364E-2,-6.499999762E-2,2.199999988E-1,2.426231641E-1
1.446831911E1,-9.099999815E-2,-4.600000009E-2,1.299999952E-1,1.652180330E-1
1.447805603E1,-9.099999815E-2,-3.599999845E-2,4.100000113E-2,1.061037212E-1
1.448779270E1,-1.019999981E-1,-2.600000054E-2,2.899999917E-2,1.091833302E-1
1.449752954E1,-9.399999678E-2,8.999999613E-3,8.000000380E-3,9.476813491E-2
1.450726646E1,-7.199999690E-2,2.899999917E-2,-4.600000009E-2,9.022748757E-2
1.451700315E1,-2.099999972E-2,1.899999939E-2,-4.600000009E-2,5.401851510E-2
1.452673999E1,2.099999972E-2,3.299999982E-2,-3.700000048E-2,5.384236261E-2
1.453647691E1,2.700000070E-2,5.499999970E-2,-8.299999684E-2,1.031649140E-1
1.454621382E1,3.900000080E-2,5.099999905E-2,-1.360000074E-1,1.503928255E-1
1.455595052E1,6.100000069E-2,-4.000000190E-3,-1.089999974E-1,1.249719949E-1
1.456568737E1,5.299999937E-2,-2.600000054E-2,-2.300000004E-2,6.335613596E-2
1.457542429E1,-8.000000380E-3,8.999999613E-3,1.600000076E-2,2.002498498E-2
1.458516100E1,7.000000216E-3,3.000000026E-3,8.399999887E-2,8.434453043E-2
1.459489792E1,3.400000185E-2,-2.199999988E-2,1.659999937E-1,1.708683646E-1
1.460463477E1,3.799999878E-2,-5.600000173E-2,1.850000024E-1,1.969898499E-1
1.461437170E1,2.500000037E-2,-1.099999994E-2,1.570000052E-1,1.593580926E-1
1.462410839E1,3.299999982E-2,2.800000086E-2,1.360000074E-1,1.427200128E-1
1.463384532E1,5.299999937E-2,2.800000086E-2,6.199999899E-2,8.623804182E-2
1.464358217E1,7.100000232E-2,4.899999872E-2,4.999999888E-3,8.641180593E-2
1.465331887E1,4.899999872E-2,9.000000358E-2,-2.099999972E-2,1.046040176E-1
1.466305579E1,3.500000015E-2,1.080000028E-1,-2.500000037E-2,1.162497339E-1
1.467279264E1,5.000000075E-2,5.700000003E-2,2.300000004E-2,7.923383166E-2
1.468252956E1,5.700000003E-2,2.099999972E-2,6.899999827E-2,9.192931933E-2
1.469226628E1,2.700000070E-2,8.000000380E-3,8.500000089E-2,8.954328672E-2
1.470200320E1,3.299999982E-2,4.000000190E-3,7.800000161E-2,8.478797226E-2
1.471174002E1,2.300000004E-2,-2.700000070E-2,7.299999893E-2,8.116033442E-2
1.472147671E1,2.800000086E-2,-6.499999762E-2,6.700000167E-2,9.745768293E-2
1.473121364E1,-2.400000021E-2,-5.700000003E-2,4.600000009E-2,7.707788283E-2
1.474095056E1,-2.600000054E-2,-2.700000070E-2,4.899999872E-2,6.169278678E-2
1.475068740E1,-2.500000037E-2,-4.500000179E-2,6.499999762E-2,8.291561897E-2
1.476042410E1,-8.000000380E-3,-4.500000179E-2,1.499999966E-2,4.810405551E-2
1.477016100E1,2.000000095E-3,-3.400000185E-2,-2.800000086E-2,4.409081735E-2
1.477989787E1,-2.999999933E-2,-1.499999966E-2,-9.700000286E-2,1.026352790E-1
1.478963479E1,-4.300000146E-2,1.000000047E-3,-1.480000019E-1,1.541233295E-1
1.479937148E1,-5.600000173E-2,1.799999923E-2,-1.710000038E-1,1.808341823E-1
1.480910840E1,-5.700000003E-2,3.700000048E-2,-1.389999986E-1,1.547223308E-1
1.481884525E1,-2.899999917E-2,3.000000026E-3,-1.059999987E-1,1.099363438E-1
1.482858197E1,-1.799999923E-2,-4.000000190E-3,-2.300000004E-2,2.947880553E-2
1.483831889E1,-5.799999833E-2,3.000000026E-3,2.500000037E-2,6.322973846E-2
1.484805571E1,-3.500000015E-2,-1.200000010E-2,1.180000007E-1,1.236648704E-1
1.485779263E1,-1.140000001E-1,3.299999982E-2,1.580000073E-1,1.976082040E-1
1.486752932E1,-1.120000035E-1,1.799999923E-2,1.979999989E-1,2.281929016E-1
1.487726624E1,-6.899999827E-2,-4.300000146E-2,1.739999950E-1,1.920572783E-1
1.488700308E1,-2.600000054E-2,-3.500000015E-2,1.439999938E-1,1.504559678E-1
1.489674000E1,-5.200000107E-2,2.199999988E-2,9.799999744E-2,1.131017224E-1
1.490647668E1,-3.500000015E-2,5.799999833E-2,4.100000113E-2,7.918333101E-2
1.491621352E1,8.999999613E-3,6.300000101E-2,1.700000092E-2,6.587108738E-2
1.492595044E1,2.199999988E-2,9.000000358E-2,2.199999988E-2,9.522605018E-2
1.493568736E1,8.200000226E-2,8.600000292E-2,1.000000047E-3,1.188318176E-1
1.494542406E1,9.799999744E-2,6.300000101E-2,3.000000026E-3,1.165418364E-1
1.495516090E1,1.490000039E-1,5.600000173E-2,-2.199999988E-2,1.606891451E-1
1.496489781E1,3.299999982E-2,2.800000086E-2,-8.000000380E-3,4.401136265E-2
1.497463451E1,7.400000095E-2,-8.000000380E-3,-3.700000048E-2,8.312039571E-2
1.498437145E1,8.399999887E-2,-3.099999949E-2,-1.499999966E-2,9.078546011E-2
1.499410828E1,8.500000089E-2,-4.600000009E-2,-1.300000027E-2,9.751922973E-2
1.500384497E1,7.999999821E-2,-5.499999970E-2,-7.299999893E-2,1.214660427E-1
1.501358187E1,7.599999756E-2,-2.700000070E-2,-6.499999762E-2,1.035857102E-1
1.502331872E1,4.300000146E-2,2.000000095E-3,-7.599999756E-2,8.734414551E-2
1.503305565E1,3.599999845E-2,1.000000047E-3,-8.399999887E-2,9.139474656E-2
1.504279235E1,4.300000146E-2,-1.499999966E-2,-6.300000101E-2,7.773673677E-2
1.505252927E1,3.500000015E-2,-3.000000026E-3,-3.700000048E-2,5.101960452E-2
1.506226612E1,4.999999888E-3,3.200000152E-2,-8.999999613E-3,3.361547395E-2
1.507200303E1,1.400000043E-2,2.999999933E-2,2.999999933E-2,4.467661504E-2
1.508173972E1,1.400000043E-2,-4.399999976E-2,8.100000024E-2,9.323625920E-2
1.509147668E1,-3.900000080E-2,-1.209999993E-1,1.000000015E-1,1.617467162E-1
1.510121352E1,-1.030000001E-1,-1.120000035E-1,1.169999987E-1,1.919427011E-1
1.511095044E1,-1.319999993E-1,-1.040000021E-1,1.430000067E-1,2.206558455E-1
1.512068714E1,-1.309999973E-1,-5.600000173E-2,1.609999985E-1,2.149837179E-1
1.513042397E1,-1.289999932E-1,-3.799999878E-2,1.110000014E-1,1.743731587E-1
1.514016089E1,-1.150000021E-1,-3.400000185E-2,8.399999887E-2,1.464137986E-1
1.514989784E1,-8.900000155E-2,-2.099999972E-2,5.999999866E-2,1.093709290E-1
1.515963453E1,-6.599999964E-2,4.000000190E-3,4.600000009E-2,8.054812203E-2
1.516937138E1,-3.200000152E-2,2.400000021E-2,3.400000185E-2,5.249762121E-2
1.517910830E1,2.400000021E-2,3.900000080E-2,1.700000092E-2,4.884670003E-2
1.518884500E1,5.400000140E-2,2.700000070E-2,-9.999999776E-3,6.119640663E-2
1.519858184E1,6.300000101E-2,3.999999911E-2,-5.700000003E-2,9.390420683E-2
1.520831877E1,6.700000167E-2,5.999999866E-2,-8.100000024E-2,1.210371848E-1
1.521805547E1,5.900000036E-2,6.499999762E-2,-8.699999750E-2,1.235920681E-1
1.522779239E1,5.200000107E-2,5.099999905E-2,-4.399999976E-2,8.509406556E-2
1.523752924E1,4.100000113E-2,4.300000146E-2,1.799999923E-2,6.208059432E-2
1.524726615E1,4.699999839E-2,4.899999872E-2,7.699999958E-2,1.026596301E-1
1.525700281E1,3.700000048E-2,3.099999949E-2,1.250000000E-1,1.339962686E-1
1.526673966E1,6.800000370E-2,1.400000043E-2,1.800000072E-1,1.929248638E-1
1.527647658E1,6.899999827E-2,1.000000047E-3,1.959999949E-1,2.077931610E-1
1.528621355E1,9.799999744E-2,1.099999994E-2,1.969999969E-1,2.203043310E-1
1.529595024E1,8.399999887E-2,1.400000043E-2,1.439999938E-1,1.672961387E-1
1.530568714E1,1.230000034E-1,2.199999988E-2,1.099999994E-1,1.664722220E-1
1.531542398E1,1.319999993E-1,3.000000026E-3,5.600000173E-2,1.434189667E-1
1.532516066E1,1.289999932E-1,4.999999888E-3,-8.999999613E-3,1.294101937E-1
1.533489758E1,8.200000226E-2,2.600000054E-2,-7.100000232E-2,1.115392340E-1
1.534463444E1,5.000000075E-2,4.999999888E-3,-1.319999993E-1,1.412409285E-1
1.535437136E1,8.000000380E-3,-2.600000054E-2,-1.260000020E-1,1.289030665E-1
1.536410803E1,-5.099999905E-2,-3.799999878E-2,-1.089999974E-1,1.261982537E-1
1.537384496E1,-5.999999866E-2,-1.030000001E-1,-9.799999744E-2,1.543146116E-1
1.538358181E1,-1.150000021E-1,-6.199999899E-2,-4.600000009E-2,1.385099288E-1
1.539331875E1,-1.969999969E-1,0.000000000E0,6.000000052E-3,1.970913463E-1
1.540305544E1,-1.829999983E-1,-2.300000004E-2,3.400000185E-2,1.875473261E-1
1.541279237E1,-1.239999980E-1,-6.899999827E-2,5.900000036E-2,1.536814865E-1
1.542252921E1,-1.019999981E-1,-5.999999866E-2,8.799999952E-2,1.474720291E-1
1.543226590E1,-4.699999839E-2,-1.300000027E-2,7.000000030E-2,8.531119444E-2
1.544200282E1,2.400000021E-2,1.700000092E-2,5.099999905E-2,5.887274364E-2
1.545173967E1,3.400000185E-2,4.500000179E-2,1.400000043E-2,5.811196347E-2
1.546147659E1,3.099999949E-2,3.500000015E-2,-2.400000021E-2,5.255473327E-2
1.547121329E1,2.000000095E-3,2.500000037E-2,-2.999999933E-2,3.910242932E-2
1.548095021E1,-8.000000380E-3,8.999999613E-3,-1.799999923E-2,2.165640716E-2
1.549068705E1,-3.099999949E-2,1.300000027E-2,-1.000000047E-3,3.363034308E-2
