"Time (s)","Linear Acceleration x (m/s^2)","Linear Acceleration y (m/s^2)","Linear Acceleration z (m/s^2)","Absolute acceleration (m/s^2)"
5.135339800E-2,-3.759999871E-1,3.670000136E-1,1.268000007E0,1.372548366E0
6.109036400E-2,-2.980000079E-1,3.100000024E-1,1.146999955E0,1.224954245E0
7.082705600E-2,-2.610000074E-1,3.009999990E-1,1.192000031E0,1.256815849E0
8.056400800E-2,6.599999964E-2,2.730000019E-1,9.530000091E-1,9.935260531E-1
9.030085400E-2,1.920000017E-1,1.870000064E-1,4.830000103E-1,5.523785052E-1
1.000378080E-1,1.580000073E-1,1.159999967E-1,2.389999926E-1,3.090970689E-1
1.097747320E-1,-4.399999976E-2,1.509999931E-1,1.000000015E-1,1.863786420E-1
1.195114210E-1,-2.469999939E-1,2.240000069E-1,-4.699999839E-2,3.367402559E-1
1.292483420E-1,-3.950000107E-1,1.909999996E-1,-2.010000050E-1,4.826044036E-1
1.389852510E-1,-4.189999998E-1,7.699999958E-2,-3.689999878E-1,5.636053502E-1
1.487220990E-1,-5.239999890E-1,-4.199999943E-2,-5.799999833E-1,7.827770877E-1
1.584590000E-1,-6.269999743E-1,6.000000052E-3,-5.429999828E-1,8.294660626E-1
1.681959580E-1,-6.819999814E-1,-2.700000070E-2,-5.950000286E-1,9.054711529E-1
1.779326520E-1,-6.069999933E-1,-1.509999931E-1,-7.149999738E-1,9.499868169E-1
1.876696290E-1,-5.379999876E-1,-2.509999871E-1,-7.310000062E-1,9.417037694E-1
1.974065520E-1,-5.000000000E-1,-2.619999945E-1,-7.889999747E-1,9.701365663E-1
2.071434290E-1,-4.589999914E-1,-2.469999939E-1,-8.859999776E-1,1.027952309E0
2.168803500E-1,-3.790000081E-1,-2.310000062E-1,-1.003000021E0,1.096818604E0
2.266172830E-1,-3.059999943E-1,-2.020000070E-1,-1.046000004E0,1.108402457E0
2.363539780E-1,-1.990000010E-1,-1.800000072E-1,-1.006000042E0,1.041171017E0
2.460909420E-1,-9.899999946E-2,-2.450000048E-1,-9.710000157E-1,1.006313586E0
2.558277900E-1,-1.049999967E-1,-3.350000083E-1,-8.719999790E-1,9.400180681E-1
2.655647300E-1,-3.289999962E-1,-2.779999971E-1,-8.960000277E-1,9.941534315E-1
2.753016530E-1,-6.480000019E-1,-1.700000018E-1,-9.580000043E-1,1.169002999E0
2.850385900E-1,-8.180000186E-1,-1.420000046E-1,-7.519999743E-1,1.120174983E0
2.947752850E-1,-7.770000100E-1,-2.639999986E-1,-4.670000076E-1,9.442002023E-1
3.045121450E-1,-6.320000291E-1,-3.059999943E-1,-2.099999972E-2,7.024962870E-1
3.142491450E-1,-4.059999883E-1,-3.039999902E-1,4.449999928E-1,6.747421568E-1
3.239859830E-1,-1.780000031E-1,-3.089999855E-1,7.870000005E-1,8.640219863E-1
3.337226610E-1,7.199999690E-2,-3.109999895E-1,1.032999992E0,1.081200248E0
3.434595820E-1,2.129999995E-1,-3.950000107E-1,1.090999961E0,1.179692724E0
3.531965060E-1,2.820000052E-1,-4.620000124E-1,1.118000031E0,1.242132071E0
3.629333300E-1,2.720000148E-1,-5.389999747E-1,1.108999968E0,1.262689950E0
3.726702510E-1,1.650000066E-1,-5.690000057E-1,1.095000029E0,1.244994406E0
3.824071590E-1,2.600000054E-2,-5.350000262E-1,1.014999986E0,1.147661099E0
3.921438730E-1,-4.699999839E-2,-4.339999855E-1,8.289999962E-1,9.369130060E-1
4.018807890E-1,4.300000146E-2,-3.339999914E-1,6.650000215E-1,7.454059451E-1
4.116177120E-1,1.000000015E-1,-2.389999926E-1,4.020000100E-1,4.782520306E-1
4.213545510E-1,2.509999871E-1,-2.189999968E-1,1.799999923E-2,3.335955517E-1
4.310914720E-1,4.040000141E-1,-1.829999983E-1,-1.870000064E-1,4.813252675E-1
4.408284430E-1,4.690000117E-1,-1.049999967E-1,-1.770000011E-1,5.121669754E-1
4.505651370E-1,4.880000055E-1,-1.099999994E-2,-1.260000020E-1,5.041239985E-1
4.603020720E-1,5.170000196E-1,5.200000107E-2,-5.799999833E-2,5.228355574E-1
4.700389200E-1,5.889999866E-1,9.700000286E-2,6.700000167E-2,6.006820998E-1
4.797758380E-1,6.970000267E-1,8.100000024E-2,2.579999864E-1,7.476189071E-1
4.895127610E-1,8.909999728E-1,-3.099999949E-2,3.970000148E-1,9.759359422E-1
4.992494590E-1,1.098999977E0,-1.940000057E-1,4.959999919E-1,1.221250566E0
5.089863800E-1,1.264000058E0,-3.810000122E-1,6.299999952E-1,1.462790877E0
5.187233080E-1,1.368000031E0,-6.069999933E-1,7.239999771E-1,1.662542944E0
5.284601560E-1,1.389999986E0,-7.889999747E-1,7.710000277E-1,1.774559653E0
5.381970720E-1,1.378999949E0,-9.419999719E-1,7.070000172E-1,1.813519735E0
5.479340160E-1,1.404999971E0,-1.113999963E0,6.480000019E-1,1.906547885E0
5.576707100E-1,1.442999959E0,-1.294999957E0,6.100000143E-1,2.032578114E0
5.674076160E-1,1.483000040E0,-1.442000031E0,4.839999974E-1,2.124360894E0
5.771445390E-1,1.516999960E0,-1.524000049E0,3.689999878E-1,2.181748386E0
5.868813720E-1,1.495000005E0,-1.521000028E0,3.240000010E-1,2.157183835E0
5.966182930E-1,1.429999948E0,-1.516000032E0,2.800000012E-1,2.102749616E0
6.063552160E-1,1.332999945E0,-1.493000031E0,2.540000081E-1,2.017536604E0
6.160919110E-1,1.274999976E0,-1.465000033E0,2.590000033E-1,1.959319024E0
6.258288460E-1,1.225000024E0,-1.449000001E0,3.050000072E-1,1.921783303E0
6.355656940E-1,1.279000044E0,-1.463999987E0,3.880000114E-1,1.982342322E0
6.453026150E-1,1.356999993E0,-1.465999961E0,4.530000091E-1,2.048368589E0
6.550393100E-1,1.450999975E0,-1.483999968E0,5.090000033E-1,2.136992708E0
6.647764710E-1,1.480000019E0,-1.524000049E0,4.950000048E-1,2.181284303E0
6.745131660E-1,1.401999950E0,-1.501999974E0,4.950000048E-1,2.113440983E0
6.842500580E-1,1.261000037E0,-1.424999952E0,4.950000048E-1,1.966156393E0
6.939869060E-1,1.065999985E0,-1.375000000E0,4.920000136E-1,1.808050049E0
7.037238310E-1,9.279999733E-1,-1.378999949E0,4.350000024E-1,1.718153023E0
7.134605160E-1,7.860000134E-1,-1.404000044E0,3.829999864E-1,1.653995506E0
7.231973900E-1,6.150000095E-1,-1.416000009E0,2.969999909E-1,1.572097335E0
7.329343130E-1,4.900000095E-1,-1.429999948E0,1.860000044E-1,1.523021950E0
7.426711320E-1,3.910000026E-1,-1.422000051E0,3.700000048E-2,1.475240369E0
7.524080530E-1,3.379999995E-1,-1.370000005E0,1.000000015E-1,1.414617974E0
7.621449760E-1,3.459999859E-1,-1.342000008E0,8.200000226E-2,1.388309768E0
7.718816700E-1,3.779999912E-1,-1.253000021E0,6.400000304E-2,1.310339287E0
7.816186050E-1,3.880000114E-1,-1.187999964E0,3.099999949E-2,1.250139561E0
7.913555290E-1,3.350000083E-1,-1.139000058E0,1.799999923E-2,1.187379526E0
8.010923870E-1,2.750000060E-1,-1.139999986E0,1.200000010E-2,1.172761259E0
8.108293080E-1,1.759999990E-1,-1.187999964E0,-2.500000037E-2,1.201226421E0
8.205662310E-1,5.000000075E-2,-1.210999966E0,-8.200000226E-2,1.214802419E0
8.303029250E-1,-5.099999905E-2,-1.223999977E0,-1.190000027E-1,1.230828154E0
8.400398260E-1,-1.570000052E-1,-1.172999978E0,-7.000000030E-2,1.185528553E0
8.497767490E-1,-1.509999931E-1,-1.083999991E0,-1.099999994E-2,1.094521804E0
8.595135980E-1,-6.300000101E-2,-1.001000047E0,0.000000000E0,1.002980605E0
8.692505350E-1,7.599999756E-2,-9.169999957E-1,-2.400000021E-2,9.204569473E-1
8.789874670E-1,1.949999928E-1,-8.009999990E-1,3.500000015E-2,8.251369557E-1
8.887241610E-1,3.230000138E-1,-6.999999881E-1,1.599999964E-1,7.873556954E-1
8.984610920E-1,4.239999950E-1,-6.420000196E-1,1.620000005E-1,7.862467940E-1
9.081979300E-1,5.479999781E-1,-5.860000253E-1,1.720000058E-1,8.205388520E-1
9.179348520E-1,5.550000072E-1,-5.519999862E-1,1.879999936E-1,8.050298071E-1
9.276717560E-1,5.270000100E-1,-4.900000095E-1,2.669999897E-1,7.675402364E-1
9.374084500E-1,5.360000134E-1,-4.469999969E-1,2.720000148E-1,7.490587558E-1
9.471453950E-1,5.370000005E-1,-4.600000083E-1,2.049999982E-1,7.362024229E-1
9.568823180E-1,5.310000181E-1,-4.900000095E-1,1.860000044E-1,7.460945183E-1
9.666191610E-1,5.329999924E-1,-4.889999926E-1,2.440000027E-1,7.633780099E-1
9.763560820E-1,5.450000167E-1,-4.760000110E-1,3.009999990E-1,7.837104236E-1
9.860930110E-1,5.960000157E-1,-5.000000000E-1,3.600000143E-1,8.572141092E-1
9.958297050E-1,6.320000291E-1,-4.939999878E-1,4.009999931E-1,8.968060098E-1
1.005566640E0,6.740000248E-1,-5.130000114E-1,4.889999926E-1,9.780419408E-1
1.015303563E0,7.390000224E-1,-5.350000262E-1,5.600000024E-1,1.070488703E0
1.025040401E0,7.820000052E-1,-5.540000200E-1,5.360000134E-1,1.098060128E0
1.034777308E0,8.289999962E-1,-5.730000138E-1,4.560000002E-1,1.106122059E0
1.044514212E0,8.840000033E-1,-6.019999981E-1,3.790000081E-1,1.134681017E0
1.054250907E0,8.590000272E-1,-6.290000081E-1,2.910000086E-1,1.103722366E0
1.063987832E0,8.069999814E-1,-6.169999838E-1,1.969999969E-1,1.034769032E0
1.073724680E0,7.670000196E-1,-6.079999804E-1,7.100000232E-2,9.813225803E-1
1.083461611E0,8.119999766E-1,-5.929999948E-1,-1.200000010E-2,1.005553060E0
1.093198534E0,8.330000043E-1,-5.279999971E-1,-1.800000072E-1,1.002533295E0
1.102935229E0,8.320000172E-1,-4.799999893E-1,-4.009999931E-1,1.040877040E0
1.112672150E0,7.730000019E-1,-4.000000060E-1,-5.830000043E-1,1.047577211E0
1.122409082E0,7.540000081E-1,-2.939999998E-1,-6.949999928E-1,1.066760049E0
1.132145930E0,7.110000253E-1,-1.459999979E-1,-7.390000224E-1,1.035836893E0
1.141882836E0,7.160000205E-1,0.000000000E0,-7.900000215E-1,1.066187630E0
1.151619759E0,7.080000043E-1,1.169999987E-1,-8.450000286E-1,1.108592826E0
1.161356439E0,7.739999890E-1,2.220000029E-1,-8.330000043E-1,1.158554699E0
1.171093361E0,8.709999919E-1,3.269999921E-1,-7.440000176E-1,1.191262359E0
1.180830255E0,1.024000049E0,4.219999909E-1,-7.020000219E-1,1.311283388E0
1.190567107E0,1.136999965E0,4.939999878E-1,-6.620000005E-1,1.405364333E0
1.200304028E0,1.156999946E0,5.500000119E-1,-5.749999881E-1,1.404198659E0
1.210040722E0,1.103000045E0,5.669999719E-1,-4.359999895E-1,1.314607948E0
1.219777643E0,1.021000028E0,5.820000172E-1,-2.630000114E-1,1.204298170E0
1.229514566E0,8.529999852E-1,6.359999776E-1,-1.280000061E-1,1.071675766E0
1.239251500E0,6.970000267E-1,7.030000091E-1,-3.299999982E-2,9.905084805E-1
1.248988423E0,5.740000010E-1,7.170000076E-1,6.400000304E-2,9.206850778E-1
1.258725266E0,5.000000000E-1,7.269999981E-1,1.449999958E-1,8.941778324E-1
1.268461958E0,4.239999950E-1,7.009999752E-1,2.339999974E-1,8.520169950E-1
1.278199115E0,4.460000098E-1,6.890000105E-1,2.849999964E-1,8.688279583E-1
1.287935833E0,5.120000243E-1,7.059999704E-1,2.960000038E-1,9.209755618E-1
1.297672678E0,5.059999824E-1,6.899999976E-1,2.610000074E-1,8.945708372E-1
1.307409606E0,4.140000045E-1,7.110000253E-1,2.010000050E-1,8.469463039E-1
1.317146529E0,2.790000141E-1,7.720000148E-1,2.890000045E-1,8.702563032E-1
1.326883418E0,1.920000017E-1,8.159999847E-1,6.259999871E-1,1.046229401E0
1.336620112E0,2.249999940E-1,7.049999833E-1,9.689999819E-1,1.219266558E0
1.346357018E0,2.899999917E-1,5.540000200E-1,1.166000009E0,1.323091848E0
1.356093941E0,3.400000036E-1,4.370000064E-1,1.319000006E0,1.430499921E0
1.365830785E0,3.709999919E-1,3.079999983E-1,1.486999989E0,1.563225498E0
1.375567706E0,3.910000026E-1,1.260000020E-1,1.613999963E0,1.665458760E0
1.385304644E0,4.070000052E-1,-1.070000008E-1,1.705000043E0,1.756167176E0
1.395041338E0,4.589999914E-1,-3.569999933E-1,1.669999957E0,1.768340986E0
1.404778249E0,4.569999874E-1,-5.419999957E-1,1.605999947E0,1.755519528E0
1.414515172E0,4.399999976E-1,-6.859999895E-1,1.523000002E0,1.727346227E0
1.424252020E0,4.519999921E-1,-7.760000229E-1,1.406999946E0,1.669170116E0
1.433988942E0,4.410000145E-1,-8.560000062E-1,1.159000039E0,1.506817213E0
1.443725875E0,4.709999859E-1,-9.070000052E-1,8.629999757E-1,1.337631846E0
1.453462569E0,4.939999878E-1,-9.480000138E-1,5.649999976E-1,1.209117451E0
1.463199518E0,5.220000148E-1,-9.589999914E-1,2.450000048E-1,1.119012959E0
1.472936366E0,5.159999728E-1,-9.350000024E-1,4.899999872E-2,1.069056582E0
1.482673393E0,5.899999738E-1,-8.889999986E-1,-1.169999987E-1,1.073363855E0
1.492410242E0,7.210000157E-1,-8.309999704E-1,-1.720000058E-1,1.113546575E0
1.502146958E0,8.330000043E-1,-7.960000038E-1,-2.409999967E-1,1.177109176E0
1.511883874E0,9.279999733E-1,-8.009999990E-1,-2.800000012E-1,1.257451768E0
1.521620797E0,1.059999943E0,-7.799999714E-1,-2.910000086E-1,1.347843032E0
1.531357645E0,1.141999960E0,-8.040000200E-1,-3.540000021E-1,1.440796982E0
1.541094586E0,1.213999987E0,-8.220000267E-1,-3.810000122E-1,1.514807255E0
1.550831509E0,1.274999976E0,-8.199999928E-1,-3.689999878E-1,1.560187783E0
1.560568442E0,1.273000002E0,-8.420000076E-1,-3.409999907E-1,1.563897059E0
1.570305136E0,1.218000054E0,-8.709999919E-1,-3.120000064E-1,1.529545397E0
1.580042057E0,1.100000024E0,-9.079999924E-1,-2.930000126E-1,1.456129474E0
1.589778980E0,1.004999995E0,-9.940000176E-1,-3.319999874E-1,1.451993463E0
1.599515833E0,9.160000086E-1,-1.139999986E0,-3.729999959E-1,1.509233242E0
1.609252754E0,8.799999952E-1,-1.294999957E0,-4.169999957E-1,1.620282036E0
1.618989730E0,7.770000100E-1,-1.421000004E0,-5.429999828E-1,1.708162465E0
1.628726425E0,7.450000048E-1,-1.580999970E0,-5.929999948E-1,1.845598794E0
1.638463341E0,8.579999804E-1,-1.832999945E0,-4.079999924E-1,2.064586341E0
1.648200278E0,9.470000267E-1,-2.125000000E0,-2.770000100E-1,2.342896296E0
1.657937201E0,9.819999933E-1,-2.374000072E0,-2.010000050E-1,2.576936424E0
1.667674054E0,8.840000033E-1,-2.539999962E0,-1.379999965E-1,2.692972300E0
1.677410747E0,6.909999847E-1,-2.640000105E0,-5.000000075E-2,2.729392154E0
1.687147673E0,4.709999859E-1,-2.684999943E0,1.140000001E-1,2.728380780E0
1.696884596E0,2.689999938E-1,-2.697000027E0,3.219999969E-1,2.729442093E0
1.706621524E0,6.400000304E-2,-2.658999920E0,5.149999857E-1,2.709169902E0
1.716358447E0,-1.289999932E-1,-2.572000027E0,6.190000176E-1,2.648581914E0
1.726095304E0,-3.930000067E-1,-2.466000080E0,5.889999866E-1,2.565643464E0
1.735832225E0,-6.230000257E-1,-2.362999916E0,4.659999907E-1,2.487780864E0
1.745568925E0,-7.149999738E-1,-2.232000113E0,3.179999888E-1,2.365200511E0
1.755305846E0,-7.730000019E-1,-2.150000095E0,4.800000042E-2,2.285242528E0
1.765042755E0,-7.649999857E-1,-2.051000118E0,-2.399999946E-1,2.202141335E0
1.774779603E0,-7.910000086E-1,-1.914000034E0,-4.749999940E-1,2.124782845E0
1.784516500E0,-8.130000234E-1,-1.766000032E0,-6.990000010E-1,2.065992777E0
1.794253423E0,-8.130000234E-1,-1.588000059E0,-8.920000196E-1,1.994586990E0
1.803990326E0,-8.690000176E-1,-1.417000055E0,-1.003999949E0,1.941923295E0
1.813727021E0,-8.709999919E-1,-1.259999990E0,-1.108999968E0,1.891063693E0
1.823463942E0,-8.349999785E-1,-1.095000029E0,-1.159999967E0,1.800513801E0
1.833200851E0,-7.049999833E-1,-8.880000114E-1,-1.133999944E0,1.603597477E0
1.842937699E0,-5.419999957E-1,-6.790000200E-1,-1.016000032E0,1.336810042E0
1.852674620E0,-3.310000002E-1,-5.270000100E-1,-8.899999857E-1,1.085997231E0
1.862411548E0,-1.400000006E-1,-3.989999890E-1,-7.239999771E-1,8.384372119E-1
1.872148242E0,7.299999893E-2,-2.509999871E-1,-4.490000010E-1,5.195488372E-1
1.881885159E0,2.680000067E-1,-1.129999980E-1,-1.330000013E-1,3.198155773E-1
1.891622007E0,4.709999859E-1,1.400000043E-2,1.059999987E-1,4.829834226E-1
1.901358923E0,6.850000024E-1,1.159999967E-1,3.140000105E-1,7.624152471E-1
1.911095846E0,8.050000072E-1,2.389999926E-1,4.740000069E-1,9.642727905E-1
1.920832769E0,8.759999871E-1,3.630000055E-1,7.369999886E-1,1.200963765E0
1.930569463E0,9.720000029E-1,3.700000048E-1,8.610000014E-1,1.350187028E0
1.940306384E0,1.072999954E0,3.560000062E-1,9.120000005E-1,1.452518126E0
1.950043308E0,1.197000027E0,2.610000074E-1,9.670000076E-1,1.560775154E0
1.959780146E0,1.315000057E0,1.319999993E-1,1.024000049E0,1.671892715E0
1.969517067E0,1.286000013E0,1.110000014E-1,9.589999914E-1,1.608041672E0
1.979254014E0,1.281000018E0,1.080000028E-1,9.210000038E-1,1.581412677E0
1.988990698E0,1.246000051E0,1.190000027E-1,9.150000215E-1,1.550452246E0
1.998727595E0,1.166000009E0,1.630000025E-1,9.309999943E-1,1.500961695E0
2.008464519E0,1.115000010E0,1.990000010E-1,9.850000143E-1,1.501016672E0
2.018201433E0,1.067000031E0,2.249999940E-1,1.001000047E0,1.480241588E0
2.027938271E0,1.059999943E0,2.099999934E-1,1.014999986E0,1.482539998E0
2.037674963E0,1.097000003E0,1.420000046E-1,1.031000018E0,1.512128978E0
2.047412129E0,1.175999999E0,6.599999964E-2,1.054000020E0,1.580584715E0
2.057148823E0,1.258999944E0,-4.500000179E-2,1.052999973E0,1.641924116E0
2.066885739E0,1.345999956E0,-1.439999938E-1,1.027999997E0,1.699775242E0
2.076622588E0,1.394999981E0,-2.700000107E-1,9.729999900E-1,1.722107410E0
2.086359586E0,1.406999946E0,-3.499999940E-1,9.440000057E-1,1.730111226E0
2.096096434E0,1.442999959E0,-4.189999998E-1,9.179999828E-1,1.760833283E0
2.105833126E0,1.427999973E0,-4.779999852E-1,8.460000157E-1,1.727247503E0
2.115570047E0,1.419999957E0,-5.279999971E-1,7.360000014E-1,1.684303974E0
2.125306961E0,1.470999956E0,-6.050000191E-1,5.970000029E-1,1.698904028E0
2.135043884E0,1.518000007E0,-6.600000262E-1,4.670000076E-1,1.719887514E0
2.144780713E0,1.592000008E0,-6.869999766E-1,3.039999902E-1,1.760354790E0
2.154517634E0,1.643000007E0,-6.570000052E-1,1.420000046E-1,1.775179436E0
2.164254553E0,1.659999967E0,-6.179999709E-1,-5.799999833E-2,1.772255019E0
2.173991247E0,1.590000033E0,-5.609999895E-1,-2.360000014E-1,1.702503185E0
2.183728168E0,1.478999972E0,-5.009999871E-1,-4.370000064E-1,1.621545840E0
2.193465091E0,1.330999970E0,-4.059999883E-1,-6.549999714E-1,1.537992807E0
2.203201994E0,1.210000038E0,-2.960000038E-1,-8.790000081E-1,1.524584241E0
2.212938843E0,1.194000006E0,-1.679999977E-1,-9.259999990E-1,1.520307867E0
2.222675750E0,1.292999983E0,-2.099999934E-1,-6.859999895E-1,1.478697041E0
2.232412673E0,1.373999953E0,-2.709999979E-1,-4.269999862E-1,1.464119482E0
2.242149352E0,1.294000030E0,-1.490000039E-1,-4.110000134E-1,1.365854344E0
2.251886273E0,1.149999976E0,2.099999972E-2,-4.099999964E-1,1.221081874E0
2.261623126E0,1.113999963E0,3.200000152E-2,-2.020000070E-1,1.132618170E0
2.271360124E0,1.082000017E0,-5.099999905E-2,8.900000155E-2,1.086851433E0
2.281096978E0,1.044999957E0,-1.330000013E-1,2.630000114E-1,1.085763748E0
2.290833899E0,1.021999955E0,-1.949999928E-1,4.740000069E-1,1.143321876E0
2.300570593E0,1.113999963E0,-3.280000091E-1,6.340000033E-1,1.323078202E0
2.310307485E0,1.228999972E0,-4.510000050E-1,7.860000134E-1,1.526970189E0
2.320044393E0,1.328999996E0,-5.640000105E-1,9.509999752E-1,1.728796678E0
2.329781241E0,1.368000031E0,-6.499999762E-1,1.090999961E0,1.866602520E0
2.339518159E0,1.351999998E0,-7.080000043E-1,1.253000021E0,1.974633397E0
2.349255082E0,1.340000033E0,-7.509999871E-1,1.409999967E0,2.085114140E0
2.358991981E0,1.307000041E0,-7.739999890E-1,1.547999978E0,2.168785149E0
2.368728675E0,1.281999946E0,-8.190000057E-1,1.620000005E0,2.222315208E0
2.378465615E0,1.271000028E0,-8.650000095E-1,1.641999960E0,2.249406578E0
2.388202538E0,1.263000011E0,-9.409999847E-1,1.629999995E0,2.266616418E0
2.397939386E0,1.253000021E0,-9.769999981E-1,1.541000009E0,2.213417962E0
2.407676304E0,1.222000003E0,-9.789999723E-1,1.424000025E0,2.116483173E0
2.417413227E0,1.113000035E0,-1.006999969E0,1.296000004E0,1.983036567E0
2.427150168E0,1.006000042E0,-1.057000041E0,1.143000007E0,1.853573356E0
2.436886862E0,9.350000024E-1,-1.166000009E0,9.070000052E-1,1.748264864E0
2.446623750E0,8.199999928E-1,-1.282999992E0,5.740000010E-1,1.627256885E0
2.456360673E0,7.089999914E-1,-1.404999971E0,1.640000045E-1,1.582277444E0
2.466097521E0,6.129999757E-1,-1.578999996E0,-2.520000041E-1,1.712458455E0
2.475834438E0,4.900000095E-1,-1.684999943E0,-6.140000224E-1,1.859118297E0
2.485571142E0,3.129999936E-1,-1.802999973E0,-1.019000053E0,2.094549834E0
2.495308063E0,1.940000057E-1,-1.950000048E0,-1.338000059E0,2.372842251E0
2.505044986E0,1.140000001E-1,-2.101999998E0,-1.496999979E0,2.583100642E0
2.514781909E0,-2.500000037E-2,-2.190000057E0,-1.519999981E0,2.665919202E0
2.524518841E0,-2.099999934E-1,-2.164000034E0,-1.476999998E0,2.628407339E0
2.534255689E0,-3.580000103E-1,-2.109999895E0,-1.253999949E0,2.480479679E0
2.543992616E0,-3.720000088E-1,-2.095999956E0,-9.639999866E-1,2.336855964E0
2.553729539E0,-2.730000019E-1,-2.118999958E0,-5.690000057E-1,2.210984131E0
2.563466228E0,-1.509999931E-1,-2.098000050E0,2.000000095E-3,2.103427965E0
2.573203149E0,-6.499999762E-2,-2.061000109E0,4.990000129E-1,2.121543650E0
2.582940125E0,-2.400000021E-2,-2.013000011E0,9.020000100E-1,2.205980296E0
2.592676973E0,-3.700000048E-2,-2.036000013E0,1.312000036E0,2.422397397E0
2.602413889E0,-7.400000095E-2,-2.056999922E0,1.628999949E0,2.624950573E0
2.612150813E0,-1.430000067E-1,-2.095000029E0,1.807000041E0,2.770329091E0
2.621887770E0,-1.140000001E-1,-2.118999958E0,1.893000007E0,2.843695808E0
2.631624507E0,-1.180000007E-1,-2.125000000E0,1.850999951E0,2.820593877E0
2.641361414E0,-1.389999986E-1,-2.082999945E0,1.592000008E0,2.625390217E0
2.651098337E0,-2.189999968E-1,-2.010999918E0,1.189000010E0,2.346444692E0
2.660835185E0,-3.179999888E-1,-1.888000011E0,7.329999804E-1,2.050111462E0
2.670572106E0,-4.219999909E-1,-1.756999969E0,2.960000038E-1,1.831051307E0
2.680308830E0,-4.339999855E-1,-1.618000031E0,-9.600000083E-2,1.677944006E0
2.690045982E0,-4.309999943E-1,-1.514999986E0,-5.189999938E-1,1.658417000E0
2.699782671E0,-4.530000091E-1,-1.398000002E0,-8.389999866E-1,1.692197976E0
2.709519592E0,-4.530000091E-1,-1.261000037E0,-1.171000004E0,1.779486193E0
2.719256468E0,-5.189999938E-1,-1.118999958E0,-1.450000048E0,1.903686434E0
2.728993389E0,-5.669999719E-1,-9.980000257E-1,-1.577999949E0,1.951301325E0
2.738730331E0,-5.569999814E-1,-9.190000296E-1,-1.649999976E0,1.969088610E0
2.748467026E0,-5.509999990E-1,-8.410000205E-1,-1.657999992E0,1.939032235E0
2.758203966E0,-5.159999728E-1,-7.810000181E-1,-1.623000026E0,1.873591760E0
2.767940884E0,-5.019999743E-1,-7.149999738E-1,-1.514000058E0,1.747977435E0
2.777677807E0,-4.679999948E-1,-6.499999762E-1,-1.381000042E0,1.596460172E0
2.787414670E0,-4.440000057E-1,-6.019999981E-1,-1.238000035E0,1.446438416E0
2.797151591E0,-3.970000148E-1,-5.720000267E-1,-1.082000017E0,1.286668986E0
2.806888499E0,-3.370000124E-1,-5.220000148E-1,-9.390000105E-1,1.125954725E0
2.816625194E0,-2.730000019E-1,-4.850000143E-1,-8.339999914E-1,1.002651485E0
2.826362134E0,-2.049999982E-1,-4.329999983E-1,-7.340000272E-1,8.765101470E-1
2.836099057E0,-1.250000000E-1,-3.639999926E-1,-6.499999762E-1,7.553945748E-1
2.845835910E0,-5.600000173E-2,-2.849999964E-1,-5.379999876E-1,6.113959313E-1
2.855572802E0,-2.600000054E-2,-1.700000018E-1,-4.339999855E-1,4.668318627E-1
2.865309725E0,-3.500000015E-2,-7.599999756E-2,-3.409999907E-1,3.511153561E-1
2.875046663E0,-1.089999974E-1,2.199999988E-2,-2.319999933E-1,2.572722222E-1
2.884783348E0,-2.549999952E-1,1.389999986E-1,-1.030000001E-1,3.081476873E-1
2.894520269E0,-4.350000024E-1,2.649999857E-1,2.000000095E-3,5.093662675E-1
2.904257158E0,-6.140000224E-1,4.110000134E-1,6.700000167E-2,7.418935495E-1
2.913994006E0,-7.720000148E-1,5.640000105E-1,1.150000021E-1,9.629667882E-1
2.923730908E0,-8.849999905E-1,7.260000110E-1,1.609999985E-1,1.155950690E0
2.933467831E0,-9.509999752E-1,8.740000129E-1,2.060000002E-1,1.307942268E0
2.943204526E0,-9.399999976E-1,9.710000157E-1,1.809999943E-1,1.363525586E0
2.952941428E0,-8.870000243E-1,1.034000039E0,1.580000073E-1,1.371455113E0
2.962678365E0,-8.569999933E-1,1.085000038E0,1.589999944E-1,1.391745332E0
2.972415288E0,-9.070000052E-1,1.180999994E0,1.809999943E-1,1.500056997E0
2.982152117E0,-9.860000014E-1,1.274000049E0,2.259999961E-1,1.626760008E0
2.991889038E0,-1.062999964E0,1.340999961E0,2.930000126E-1,1.736116017E0
3.001625961E0,-1.139999986E0,1.391000032E0,3.269999921E-1,1.827952421E0
3.011362885E0,-1.159999967E0,1.414999962E0,3.549999893E-1,1.863826657E0
3.021099564E0,-1.133999944E0,1.416000009E0,3.540000021E-1,1.848331112E0
3.030836485E0,-1.080000043E0,1.424000025E0,3.199999928E-1,1.815647587E0
3.040573418E0,-9.819999933E-1,1.389999986E0,2.249999940E-1,1.716697103E0
3.050310266E0,-8.899999857E-1,1.324000001E0,7.900000364E-2,1.597284251E0
3.060047163E0,-8.149999976E-1,1.243999958E0,-1.799999923E-2,1.487307934E0
3.069783858E0,-7.739999890E-1,1.159000039E0,-1.019999981E-1,1.397412277E0
3.079520783E0,-7.749999762E-1,1.115000010E0,-1.809999943E-1,1.369894515E0
3.089257706E0,-8.169999719E-1,1.110000014E0,-3.070000112E-1,1.412033283E0
3.098994605E0,-6.700000167E-1,1.151000023E0,-2.840000093E-1,1.361747803E0
3.108731439E0,-4.530000091E-1,1.060999990E0,2.389999926E-1,1.178155755E0
3.118468360E0,-2.269999981E-1,8.259999752E-1,9.110000134E-1,1.250490297E0
3.128205259E0,-2.039999962E-1,6.000000238E-1,1.338000059E0,1.480493224E0
3.137942182E0,-2.599999905E-1,3.680000007E-1,1.485000014E0,1.551853420E0
3.147678872E0,-2.440000027E-1,-8.999999613E-3,1.675999999E0,1.693692120E0
3.157415793E0,-1.630000025E-1,-3.860000074E-1,1.962000012E0,2.006242522E0
3.167152702E0,-1.000000015E-1,-6.890000105E-1,2.107000113E0,2.219047203E0
3.176889550E0,4.999999888E-3,-9.259999990E-1,2.144999981E0,2.336348843E0
3.186626475E0,1.710000038E-1,-1.095000029E0,2.010999918E0,2.296167837E0
3.196363398E0,3.009999990E-1,-1.263000011E0,1.807999969E0,2.225900697E0
3.206100345E0,3.429999948E-1,-1.322000027E0,1.697000027E0,2.178334721E0
3.215837040E0,3.240000010E-1,-1.291000009E0,1.633000016E0,2.106738255E0
3.225573956E0,3.179999888E-1,-1.223999977E0,1.480000019E0,1.946715180E0
3.235310879E0,4.040000141E-1,-1.133000016E0,1.238999963E0,1.726854353E0
3.245047822E0,5.600000024E-1,-1.065000057E0,9.559999704E-1,1.536802222E0
3.254784670E0,7.530000210E-1,-1.049000025E0,6.899999976E-1,1.464073113E0
3.264521581E0,9.380000234E-1,-1.075999975E0,4.650000036E-1,1.501281118E0
3.274258281E0,1.082000017E0,-1.111999989E0,3.359999955E-1,1.587502444E0
3.283995178E0,1.111999989E0,-1.144999981E0,2.489999980E-1,1.615416333E0
3.293732101E0,1.087000012E0,-1.164000034E0,1.889999956E-1,1.603803637E0
3.303468944E0,1.050999999E0,-1.151999950E0,2.080000043E-1,1.573203383E0
3.313205865E0,1.036999941E0,-1.175999999E0,2.709999979E-1,1.591158658E0
3.322942778E0,1.072000027E0,-1.266000032E0,3.179999888E-1,1.689101575E0
3.332679701E0,1.156999946E0,-1.425999999E0,3.120000064E-1,1.862651034E0
3.342416396E0,1.284000039E0,-1.606999993E0,2.349999994E-1,2.070345401E0
3.352153317E0,1.389999986E0,-1.840999961E0,1.920000017E-1,2.314788288E0
3.361890256E0,1.462000012E0,-2.042999983E0,1.190000027E-1,2.515045520E0
3.371627179E0,1.495000005E0,-2.232000113E0,-1.999999955E-2,2.686493908E0
3.381364022E0,1.498999953E0,-2.355999947E0,-1.299999952E-1,2.795467154E0
3.391100943E0,1.478000045E0,-2.448999882E0,-2.189999968E-1,2.868805597E0
3.400837866E0,1.453999996E0,-2.480999947E0,-3.479999900E-1,2.896649913E0
3.410574561E0,1.391000032E0,-2.500999928E0,-4.939999878E-1,2.904120816E0
3.420311486E0,1.356999993E0,-2.486000061E0,-6.050000191E-1,2.896147494E0
3.430048404E0,1.307000041E0,-2.424999952E0,-7.039999962E-1,2.843323737E0
3.439785337E0,1.228000045E0,-2.322999954E0,-7.950000167E-1,2.745239138E0
3.449522185E0,1.101999998E0,-2.211999893E0,-8.790000081E-1,2.622973225E0
3.459259082E0,8.579999804E-1,-2.003000021E0,-9.409999847E-1,2.373531972E0
3.468996005E0,5.600000024E-1,-1.753000021E0,-9.710000157E-1,2.080733070E0
3.478732705E0,3.429999948E-1,-1.534999967E0,-9.990000129E-1,1.863296788E0
3.488469626E0,1.420000046E-1,-1.304999948E0,-1.024999976E0,1.665477053E0
3.498206558E0,3.200000152E-2,-1.121000051E0,-1.065999985E0,1.547262448E0
3.507943382E0,-1.899999939E-2,-9.549999833E-1,-1.075000048E0,1.438058090E0
3.517680303E0,1.099999994E-2,-7.789999843E-1,-1.080999970E0,1.332487490E0
3.527417231E0,-1.099999994E-2,-5.849999785E-1,-1.039999962E0,1.193292041E0
3.537153926E0,-1.700000092E-2,-4.239999950E-1,-9.689999819E-1,1.057840234E0
3.546890857E0,-2.500000037E-2,-2.870000005E-1,-8.909999728E-1,9.364160143E-1
3.556627780E0,-5.299999937E-2,-1.500000060E-1,-8.460000157E-1,8.608281062E-1
3.566364707E0,-1.190000027E-1,3.700000048E-2,-7.760000229E-1,7.859427690E-1
3.576101555E0,-1.909999996E-1,1.800000072E-1,-6.909999847E-1,7.391630276E-1
3.585838472E0,-2.590000033E-1,2.569999993E-1,-5.609999895E-1,6.692166985E-1
3.595575395E0,-3.260000050E-1,3.129999936E-1,-4.120000005E-1,6.115464002E-1
3.605312313E0,-4.379999936E-1,3.529999852E-1,-3.170000017E-1,6.457104498E-1
3.615049008E0,-5.540000200E-1,4.000000060E-1,-2.259999961E-1,7.197166284E-1
3.624785943E0,-6.000000238E-1,3.989999890E-1,-1.110000014E-1,7.290555673E-1
3.634522866E0,-6.029999852E-1,3.670000136E-1,1.799999923E-2,7.061317102E-1
3.644259733E0,-6.359999776E-1,3.420000076E-1,1.870000064E-1,7.459416727E-1
3.653996654E0,-6.890000105E-1,3.529999852E-1,3.149999976E-1,8.357960293E-1
3.663733587E0,-7.440000176E-1,3.689999878E-1,4.020000100E-1,9.226597560E-1
3.673470282E0,-7.549999952E-1,3.529999852E-1,4.199999869E-1,9.332920075E-1
3.683207222E0,-7.639999986E-1,3.630000055E-1,4.390000105E-1,9.529879385E-1
3.692944145E0,-7.210000157E-1,3.260000050E-1,4.499999881E-1,9.102840300E-1
3.702681063E0,-6.129999757E-1,2.639999986E-1,3.930000067E-1,7.745411381E-1
3.712417911E0,-4.720000029E-1,2.070000023E-1,2.860000134E-1,5.894310912E-1
3.722154832E0,-3.230000138E-1,1.780000031E-1,2.540000081E-1,4.478046607E-1
3.731891755E0,-2.199999988E-1,2.010000050E-1,3.030000031E-1,4.249823565E-1
3.741628469E0,-1.010000035E-1,2.489999980E-1,3.319999874E-1,4.271135579E-1
3.751365371E0,3.900000080E-2,3.019999862E-1,3.980000019E-1,5.011277215E-1
3.761102308E0,2.199999988E-1,3.050000072E-1,4.810000062E-1,6.105620442E-1
3.770839156E0,4.120000005E-1,2.890000045E-1,6.219999790E-1,8.000931052E-1
3.780576077E0,5.519999862E-1,2.440000027E-1,7.910000086E-1,9.949477371E-1
3.790313000E0,6.589999795E-1,1.959999949E-1,9.020000100E-1,1.134152101E0
3.800049894E0,6.999999881E-1,1.389999986E-1,9.729999900E-1,1.206668954E0
3.809786589E0,7.189999819E-1,8.500000089E-2,1.014999986E0,1.246760179E0
3.819523525E0,7.789999843E-1,-6.000000052E-3,1.059000015E0,1.314670304E0
3.829260448E0,8.880000114E-1,-7.199999690E-2,1.110000014E0,1.423315865E0
3.838997385E0,1.021999955E0,-7.599999756E-2,1.093000054E0,1.498302048E0
3.848734233E0,1.149999976E0,-1.070000008E-1,1.044999957E0,1.557553805E0
3.858471164E0,1.251000047E0,-1.209999993E-1,9.800000191E-1,1.593750970E0
3.868208063E0,1.299000025E0,-1.469999999E-1,8.640000224E-1,1.567005457E0
3.877944758E0,1.373000026E0,-1.990000010E-1,7.500000000E-1,1.577095454E0
3.887681679E0,1.389999986E0,-2.169999927E-1,6.110000014E-1,1.533789411E0
3.897418602E0,1.368000031E0,-2.329999954E-1,4.329999983E-1,1.453685688E0
3.907155420E0,1.345000029E0,-2.269999981E-1,3.000000119E-1,1.396622384E0
3.916892341E0,1.327999949E0,-2.020000070E-1,1.640000045E-1,1.353249375E0
3.926629259E0,1.296000004E0,-1.949999928E-1,-1.600000076E-2,1.310685701E0
3.936365954E0,1.269999981E0,-1.759999990E-1,-1.969999969E-1,1.297183468E0
3.946102860E0,1.162999988E0,-1.159999967E-1,-3.790000081E-1,1.228684653E0
3.955839783E0,1.075999975E0,9.999999776E-3,-5.540000200E-1,1.210285904E0
3.965576721E0,1.146000028E0,1.180000007E-1,-5.929999948E-1,1.295719513E0
3.975313569E0,1.281999946E0,1.030000001E-1,-3.379999995E-1,1.329803316E0
3.985050490E0,1.386999965E0,1.260000020E-1,-6.499999762E-2,1.394227350E0
3.994787413E0,1.412999988E0,2.199999988E-1,-2.300000004E-2,1.430209063E0
4.004524336E0,1.399999976E0,2.759999931E-1,-4.100000113E-2,1.427535264E0
4.014261031E0,1.411000013E0,2.300000042E-1,9.999999776E-3,1.429657665E0
4.023997962E0,1.519999981E0,1.599999964E-1,1.110000014E-1,1.532423225E0
4.033734885E0,1.689000010E0,7.400000095E-2,3.880000114E-1,1.734572294E0
4.043471812E0,1.830999970E0,-4.300000146E-2,7.409999967E-1,1.975725408E0
4.053208660E0,1.891999960E0,-7.800000161E-2,9.919999838E-1,2.137711818E0
4.062945562E0,1.917999983E0,-1.560000032E-1,1.105000019E0,2.219027935E0
4.072682499E0,1.960999966E0,-2.689999938E-1,1.235999942E0,2.333576165E0
4.082419199E0,1.976999998E0,-4.530000091E-1,1.393000007E0,2.460525761E0
4.092156120E0,1.906999946E0,-6.219999790E-1,1.544000030E0,2.531297860E0
4.101892930E0,1.794000030E0,-7.540000081E-1,1.680999994E0,2.571519609E0
4.111629851E0,1.595999956E0,-8.769999743E-1,1.657999992E0,2.462784763E0
4.121366755E0,1.343000054E0,-1.008000016E0,1.552000046E0,2.286573270E0
4.131103678E0,1.050999999E0,-1.080000043E0,1.356999993E0,2.027917669E0
4.140840364E0,7.659999728E-1,-1.126000047E0,1.110999942E0,1.757541730E0
4.150577285E0,4.440000057E-1,-1.125000000E0,7.990000248E-1,1.449538563E0
4.160314260E0,9.000000358E-2,-1.101999998E0,3.600000143E-1,1.162800072E0
4.170051183E0,-2.730000019E-1,-1.021999955E0,-1.319999993E-1,1.066037949E0
4.179788031E0,-5.440000296E-1,-9.610000253E-1,-6.140000224E-1,1.263508254E0
4.189524952E0,-6.740000248E-1,-9.179999828E-1,-1.092000008E0,1.577803542E0
4.199261885E0,-6.840000153E-1,-9.409999847E-1,-1.453999996E0,1.862109820E0
4.208998808E0,-5.860000253E-1,-9.760000110E-1,-1.687999964E0,2.036004894E0
4.218735493E0,-4.909999967E-1,-1.067000031E0,-1.851999998E0,2.193051312E0
4.228472361E0,-4.440000057E-1,-1.159000039E0,-1.809999943E0,2.194656440E0
4.238209361E0,-4.259999990E-1,-1.199000001E0,-1.641999960E0,2.077315785E0
4.247946205E0,-4.889999926E-1,-1.210999966E0,-1.480999947E0,1.974589261E0
4.257683126E0,-5.249999762E-1,-1.182000041E0,-1.233999968E0,1.787597548E0
4.267420048E0,-4.469999969E-1,-1.233000040E0,-8.849999905E-1,1.582189331E0
4.277156971E0,-2.590000033E-1,-1.325000048E0,-4.539999962E-1,1.424367272E0
4.286893657E0,2.099999972E-2,-1.473000050E0,5.000000075E-2,1.473998014E0
4.296630578E0,3.289999962E-1,-1.610000014E0,5.950000286E-1,1.747674477E0
4.306367431E0,5.049999952E-1,-1.769000053E0,1.241999984E0,2.219673432E0
4.316104352E0,5.260000229E-1,-1.866000056E0,1.960000038E0,2.756851897E0
4.325841289E0,3.100000024E-1,-1.907999992E0,2.500999928E0,3.160943626E0
4.335578212E0,6.899999827E-2,-1.894999981E0,2.871000051E0,3.440701560E0
4.345314902E0,-1.999999955E-2,-1.967000008E0,3.056999922E0,3.635208048E0
4.355051823E0,4.899999872E-2,-2.124000072E0,3.059999943E0,3.725235155E0
4.364788741E0,2.280000001E-1,-2.319000006E0,2.779999971E0,3.627415729E0
4.374525664E0,4.390000105E-1,-2.466000080E0,2.295000076E0,3.397190421E0
4.384262512E0,5.690000057E-1,-2.479000092E0,1.753999949E0,3.089614584E0
4.393999443E0,5.450000167E-1,-2.332000017E0,1.156000018E0,2.659245220E0
4.403736380E0,4.779999852E-1,-2.042000055E0,5.970000029E-1,2.180517648E0
4.413473075E0,4.469999969E-1,-1.784000039E0,1.589999944E-1,1.846008162E0
4.423210015E0,5.649999976E-1,-1.606999993E0,-3.569999933E-1,1.740437580E0
4.432946938E0,7.089999914E-1,-1.452000022E0,-8.750000000E-1,1.837555455E0
4.442683832E0,8.159999847E-1,-1.335000038E0,-1.289999962E0,2.027851321E0
4.452420680E0,8.709999919E-1,-1.256000042E0,-1.611999989E0,2.221423205E0
4.462157601E0,8.930000067E-1,-1.166000009E0,-1.868999958E0,2.377007757E0
4.471894296E0,8.140000105E-1,-1.050999999E0,-2.065999985E0,2.456736240E0
4.481631437E0,6.909999847E-1,-9.269999862E-1,-2.170000076E0,2.458802612E0
4.491368132E0,5.329999924E-1,-8.080000281E-1,-2.197000027E0,2.400783654E0
4.501105053E0,3.980000019E-1,-7.139999866E-1,-2.144999981E0,2.295479231E0
4.510841901E0,3.310000002E-1,-6.620000005E-1,-2.030999899E0,2.161658065E0
4.520578798E0,3.050000072E-1,-6.539999843E-1,-1.914999962E0,2.046452012E0
4.530315721E0,2.759999931E-1,-6.740000248E-1,-1.766000032E0,1.910290068E0
4.540052663E0,1.850000024E-1,-6.940000057E-1,-1.606999993E0,1.760201689E0
4.549789344E0,7.999999821E-2,-6.940000057E-1,-1.432999969E0,1.594216082E0
4.559526274E0,-9.000000358E-2,-6.209999919E-1,-1.261999965E0,1.409391678E0
4.569263197E0,-2.660000026E-1,-5.669999719E-1,-1.075000048E0,1.244134266E0
4.579000035E0,-4.320000112E-1,-5.360000134E-1,-8.799999952E-1,1.117282424E0
4.588736956E0,-5.740000010E-1,-4.469999969E-1,-7.049999833E-1,1.013069580E0
4.598473865E0,-7.229999900E-1,-3.420000076E-1,-5.559999943E-1,9.740785309E-1
4.608210797E0,-8.539999723E-1,-2.140000015E-1,-3.970000148E-1,9.657748004E-1
4.617947492E0,-9.359999895E-1,-1.490000039E-1,-1.809999943E-1,9.649134570E-1
4.627684418E0,-1.026000023E0,-9.399999678E-2,5.000000075E-2,1.031509596E0
4.637421341E0,-1.148000002E0,-5.600000173E-2,2.280000001E-1,1.171761070E0
4.647158274E0,-1.345000029E0,-1.499999966E-2,3.639999926E-1,1.393465490E0
4.656895122E0,-1.547000051E0,3.599999845E-2,5.600000024E-1,1.645632146E0
4.666632057E0,-1.822999954E0,5.999999866E-2,7.210000157E-1,1.961318397E0
4.676368980E0,-2.111000061E0,1.220000014E-1,8.500000238E-1,2.278970228E0
4.686105675E0,-2.335000038E0,1.410000026E-1,9.029999971E-1,2.507491809E0
4.695842596E0,-2.447999954E0,1.379999965E-1,9.229999781E-1,2.619861969E0
4.705579444E0,-2.515000105E0,1.519999951E-1,9.729999900E-1,2.700936598E0
4.715316375E0,-2.510999918E0,2.049999982E-1,1.023000002E0,2.719131220E0
4.725053302E0,-2.443000078E0,2.879999876E-1,1.064000010E0,2.680165927E0
4.734790225E0,-2.315999985E0,4.090000093E-1,1.164999962E0,2.624568888E0
4.744526916E0,-2.153000116E0,4.869999886E-1,1.314000010E0,2.568885851E0
4.754263837E0,-1.902999997E0,5.080000162E-1,1.434000015E0,2.436355690E0
4.764000779E0,-1.667000055E0,5.289999843E-1,1.527999997E0,2.322394058E0
4.773737702E0,-1.485999942E0,5.220000148E-1,1.557999969E0,2.215410514E0
4.783474550E0,-1.355000019E0,5.009999871E-1,1.567000031E0,2.131317700E0
4.793211471E0,-1.258999944E0,5.099999905E-1,1.557999969E0,2.067013486E0
4.802948379E0,-1.144000053E0,5.550000072E-1,1.491999984E0,1.960312496E0
4.812685302E0,-1.011000037E0,5.780000091E-1,1.384999990E0,1.809538632E0
4.822422021E0,-9.129999876E-1,6.520000100E-1,1.179000020E0,1.627487031E0
4.832158942E0,-8.339999914E-1,7.360000014E-1,8.989999890E-1,1.430193332E0
4.841895875E0,-7.059999704E-1,8.399999738E-1,5.989999771E-1,1.250134747E0
4.851632723E0,-5.630000234E-1,9.919999838E-1,3.300000131E-1,1.187405997E0
4.861369673E0,-3.639999926E-1,1.082999945E0,1.169999987E-1,1.148509414E0
4.871106596E0,-2.419999987E-1,1.179999948E0,-4.699999839E-2,1.205476203E0
4.880843523E0,-1.209999993E-1,1.264999986E0,-2.249999940E-1,1.290539020E0
4.890580218E0,-1.899999939E-2,1.299999952E0,-3.230000138E-1,1.339660362E0
4.900317111E0,1.400000006E-1,1.271999955E0,-2.649999857E-1,1.306831618E0
4.910053959E0,2.409999967E-1,1.139000058E0,-1.150000021E-1,1.169883384E0
4.919790865E0,3.219999969E-1,9.520000219E-1,7.299999893E-2,1.007629416E0
4.929527788E0,4.180000126E-1,7.039999962E-1,1.679999977E-1,8.358014145E-1
4.939264697E0,5.550000072E-1,4.280000031E-1,1.870000064E-1,7.253812880E-1
4.949001392E0,7.279999852E-1,1.899999976E-1,2.450000048E-1,7.912704847E-1
4.958738313E0,9.959999919E-1,-1.899999939E-2,6.399999857E-1,1.184051082E0
4.968475236E0,1.286999941E0,-2.419999987E-1,1.419999957E0,1.931665790E0
4.978212178E0,1.585999966E0,-4.560000002E-1,2.226999998E0,2.771797410E0
4.987949016E0,1.819000006E0,-6.729999781E-1,2.674999952E0,3.304136004E0
4.997685937E0,1.998000026E0,-8.569999933E-1,2.999000072E0,3.704113190E0
5.007422870E0,2.098999977E0,-1.069000006E0,3.177000046E0,3.954983086E0
5.017159565E0,2.138999939E0,-1.342000008E0,3.147000074E0,4.034835093E0
5.026896486E0,2.161999941E0,-1.592000008E0,2.789000034E0,3.871334261E0
5.036633409E0,2.157999992E0,-1.695000052E0,2.193000078E0,3.512725222E0
5.046370308E0,2.046000004E0,-1.661999941E0,1.496999979E0,3.031397162E0
5.056107156E0,2.035000086E0,-1.537999988E0,6.890000105E-1,2.642232073E0
5.065844081E0,2.125999928E0,-1.483000040E0,-2.500000037E-2,2.592255738E0
5.075580771E0,2.377000093E0,-1.450999975E0,-5.019999743E-1,2.829758708E0
5.085317922E0,2.700999975E0,-1.419999957E0,-9.380000234E-1,3.192435557E0
5.095054627E0,3.068000078E0,-1.353999972E0,-1.236999989E0,3.574368388E0
5.104791538E0,3.339999914E0,-1.225999951E0,-1.358000040E0,3.808259368E0
5.114528386E0,3.585999966E0,-1.072999954E0,-1.432999969E0,4.008018658E0
5.124265293E0,3.658999920E0,-9.330000281E-1,-1.521999955E0,4.071271709E0
5.134002216E0,3.601000071E0,-8.370000124E-1,-1.524000049E0,3.998793153E0
5.143738911E0,3.454999924E0,-8.140000105E-1,-1.541000009E0,3.869664264E0
5.153475832E0,3.214999914E0,-8.389999866E-1,-1.527999997E0,3.657175060E0
5.163212745E0,3.000999928E0,-9.139999747E-1,-1.511000037E0,3.482027804E0
5.172949668E0,2.749000072E0,-1.042999983E0,-1.488000035E0,3.295298843E0
5.182686545E0,2.510999918E0,-1.144999981E0,-1.468000054E0,3.125887027E0
5.192423471E0,2.256999969E0,-1.190000057E0,-1.437999964E0,2.928821076E0
5.202160398E0,1.965999961E0,-1.184999943E0,-1.399000049E0,2.688230244E0
5.211897321E0,1.717000008E0,-1.205000043E0,-1.417000055E0,2.531403422E0
5.221634012E0,1.547999978E0,-1.276000023E0,-1.447999954E0,2.474102637E0
5.231370933E0,1.368000031E0,-1.338000059E0,-1.478000045E0,2.417881795E0
5.241107827E0,1.172999978E0,-1.386999965E0,-1.526000023E0,2.372419423E0
5.250844750E0,9.599999785E-1,-1.430999994E0,-1.575000048E0,2.334520527E0
5.260581593E0,7.509999871E-1,-1.432000041E0,-1.575999975E0,2.257963910E0
5.270318514E0,5.210000277E-1,-1.414000034E0,-1.509999990E0,2.133292548E0
5.280055199E0,2.560000122E-1,-1.300999999E0,-1.282999992E0,1.845054466E0
5.289792120E0,-4.699999839E-2,-1.110999942E0,-1.044999957E0,1.525960282E0
5.299529043E0,-2.639999986E-1,-8.610000014E-1,-8.159999847E-1,1.215266628E0
5.309265966E0,-4.289999902E-1,-6.570000052E-1,-6.449999809E-1,1.015733712E0
5.319002829E0,-5.740000010E-1,-4.990000129E-1,-4.129999876E-1,8.654744385E-1
5.328739750E0,-7.900000215E-1,-3.310000002E-1,-1.509999931E-1,8.697482578E-1
5.338476672E0,-9.909999967E-1,-1.449999958E-1,8.900000155E-2,1.005498380E0
5.348213358E0,-1.228000045E0,3.999999911E-2,2.339999974E-1,1.250735827E0
5.357950279E0,-1.490000010E0,2.329999954E-1,3.339999914E-1,1.544650453E0
5.367687183E0,-1.725999951E0,4.189999998E-1,4.560000002E-1,1.833731941E0
5.377424106E0,-1.985000014E0,6.359999776E-1,6.119999886E-1,2.172386939E0
5.387160939E0,-2.249000072E0,8.600000143E-1,7.910000086E-1,2.534419532E0
5.396897860E0,-2.471999884E0,1.103000045E0,9.139999747E-1,2.857059411E0
5.406634773E0,-2.572000027E0,1.271999955E0,1.001999974E0,3.039271619E0
5.416371696E0,-2.492000103E0,1.337000012E0,1.105999947E0,3.036588452E0
5.426108411E0,-2.394000053E0,1.347000003E0,1.243000031E0,3.015077833E0
5.435845332E0,-2.259999990E0,1.363999963E0,1.356999993E0,2.968087741E0
5.445582255E0,-2.099999905E0,1.381000042E0,1.401000023E0,2.877492273E0
5.455319103E0,-1.935999990E0,1.393000007E0,1.348000050E0,2.739643975E0
5.465056029E0,-1.779999971E0,1.383999944E0,1.289000034E0,2.597186330E0
5.474792952E0,-1.680999994E0,1.398000002E0,1.208999991E0,2.498368661E0
5.484529661E0,-1.600999951E0,1.455000043E0,1.059000015E0,2.408673287E0
5.494266582E0,-1.511000037E0,1.485999942E0,8.199999928E-1,2.272381334E0
5.504003505E0,-1.340999961E0,1.411999941E0,6.010000110E-1,2.037946452E0
5.513740377E0,-1.131000042E0,1.248999953E0,3.720000088E-1,1.725556717E0
5.523477312E0,-1.008999944E0,1.085000038E0,1.759999990E-1,1.492073044E0
5.533214235E0,-9.639999866E-1,9.559999704E-1,-3.599999845E-2,1.358133984E0
5.542951192E0,-9.610000253E-1,8.439999819E-1,-2.440000027E-1,1.302072586E0
5.552687887E0,-9.509999752E-1,7.940000296E-1,-4.539999962E-1,1.319451779E0
5.562424837E0,-8.600000143E-1,7.030000091E-1,-6.750000119E-1,1.299782310E0
5.572161760E0,-7.089999914E-1,6.090000272E-1,-8.970000148E-1,1.295442414E0
5.581898637E0,-5.899999738E-1,5.419999957E-1,-1.092000008E0,1.354373649E0
5.591635558E0,-4.760000110E-1,5.910000205E-1,-1.263000011E0,1.473440214E0
5.601372481E0,-3.210000098E-1,6.050000191E-1,-1.300999999E0,1.470260870E0
5.611109404E0,-1.280000061E-1,5.860000253E-1,-9.869999886E-1,1.154967103E0
5.620846095E0,-6.400000304E-2,6.449999809E-1,-6.159999967E-1,8.941906797E-1
5.630583044E0,-1.159999967E-1,6.840000153E-1,-4.939999878E-1,8.516736512E-1
5.640319982E0,-1.360000074E-1,6.200000048E-1,-3.930000067E-1,7.465554321E-1
5.650056905E0,-1.469999999E-1,4.320000112E-1,-2.610000074E-1,5.256938401E-1
5.659793767E0,-1.710000038E-1,2.739999890E-1,-1.309999973E-1,3.485369343E-1
5.669530664E0,-2.649999857E-1,1.190000027E-1,-1.040000021E-1,3.085482029E-1
5.679267358E0,-3.700000048E-1,-2.800000086E-2,-9.899999946E-2,3.840377631E-1
5.689004280E0,-4.709999859E-1,-1.580000073E-1,-4.500000179E-2,4.988286171E-1
5.698741198E0,-5.849999785E-1,-2.160000056E-1,1.049999967E-1,6.323811957E-1
5.708478121E0,-6.679999828E-1,-1.840000004E-1,2.660000026E-1,7.421832514E-1
5.718214935E0,-6.959999800E-1,-9.099999815E-2,5.109999776E-1,8.682268994E-1
5.727951866E0,-5.879999995E-1,3.700000048E-2,8.989999890E-1,1.074855330E0
5.737688789E0,-3.910000026E-1,1.920000017E-1,1.317000031E0,1.387167649E0
5.747425454E0,-1.700000018E-1,3.280000091E-1,1.682999969E0,1.723070776E0
5.757162376E0,-1.000000047E-3,4.370000064E-1,2.119999886E0,2.164571440E0
5.766899280E0,1.379999965E-1,5.099999905E-1,2.473999977E0,2.529786528E0
5.776636203E0,2.240000069E-1,5.839999914E-1,2.802999973E0,2.871940258E0
5.786373017E0,2.590000033E-1,6.430000067E-1,3.045000076E0,3.122908176E0
5.796109938E0,3.700000048E-1,6.280000210E-1,3.250999928E0,3.331708955E0
5.805846832E0,6.069999933E-1,4.869999886E-1,3.388999939E0,3.477202693E0
5.815583527E0,8.719999790E-1,3.440000117E-1,3.451999903E0,3.577013181E0
5.825320418E0,1.184999943E0,1.940000057E-1,3.407999992E0,3.613353680E0
5.835057252E0,1.539999962E0,3.299999982E-2,3.190999985E0,3.543327502E0
5.844794260E0,1.837000012E0,-5.700000003E-2,2.815000057E0,3.361851182E0
5.854531108E0,2.078999996E0,-1.580000073E-1,2.381000042E0,3.164864324E0
5.864268029E0,2.325000048E0,-2.930000126E-1,1.898000002E0,3.015605783E0
5.874004928E0,2.559999943E0,-4.860000014E-1,1.412999988E0,2.964180270E0
5.883741623E0,2.729000092E0,-7.049999833E-1,1.013000011E0,2.995101918E0
5.893478543E0,2.839999914E0,-8.999999762E-1,6.669999957E-1,3.052947504E0
5.903215391E0,2.829999924E0,-1.075999975E0,3.370000124E-1,3.046349376E0
5.912952365E0,2.769000053E0,-1.286999941E0,9.300000221E-2,3.054894293E0
5.922689213E0,2.687000036E0,-1.521999955E0,-7.900000364E-2,3.089125128E0
5.932426134E0,2.634000063E0,-1.786999941E0,-2.360000014E-1,3.191711315E0
5.942162843E0,2.622999907E0,-2.055999994E0,-2.890000045E-1,3.345263142E0
5.951899765E0,2.568000078E0,-2.323999882E0,-2.639999986E-1,3.473513474E0
5.961636683E0,2.423000097E0,-2.529999971E0,-1.369999945E-1,3.505794963E0
5.971373611E0,2.223999977E0,-2.688999891E0,1.030000001E-1,3.491060772E0
5.981110488E0,2.059000015E0,-2.832000017E0,2.199999988E-1,3.508290917E0
5.990847409E0,1.939000010E0,-2.946000099E0,2.649999857E-1,3.536787047E0
6.000584327E0,1.786999941E0,-3.003000021E0,2.199999988E-1,3.501396566E0
6.010321250E0,1.585999966E0,-3.048000097E0,6.100000069E-2,3.436483884E0
6.020057959E0,1.417999983E0,-3.032000065E0,-1.239999980E-1,3.349496133E0
6.029794803E0,1.258999944E0,-2.970999956E0,-4.359999895E-1,3.256073953E0
6.039531827E0,1.062999964E0,-2.816999912E0,-7.720000148E-1,3.108285935E0
6.049268675E0,9.369999766E-1,-2.697000027E0,-1.141999960E0,3.075051546E0
6.059005601E0,8.870000243E-1,-2.484999895E0,-1.292000055E0,2.937900214E0
6.068742295E0,7.760000229E-1,-2.194000006E0,-1.368000031E0,2.699488126E0
6.078479428E0,6.970000267E-1,-1.827999949E0,-1.450000048E0,2.435137161E0
6.088216123E0,6.759999990E-1,-1.521999955E0,-1.485000014E0,2.231296687E0
6.097953044E0,6.750000119E-1,-1.215999961E0,-1.386000037E0,1.963485937E0
6.107689887E0,6.060000062E-1,-9.369999766E-1,-1.146000028E0,1.599537754E0
6.117426808E0,5.249999762E-1,-6.859999895E-1,-8.880000114E-1,1.238856320E0
6.127163716E0,3.989999890E-1,-4.839999974E-1,-6.330000162E-1,8.911487021E-1
6.136900410E0,2.280000001E-1,-3.079999983E-1,-3.819999993E-1,5.410840956E-1
6.146637365E0,5.200000107E-2,-2.529999912E-1,-1.239999980E-1,2.865117714E-1
6.156374289E0,-1.410000026E-1,-2.759999931E-1,1.350000054E-1,3.380562059E-1
6.166111212E0,-3.179999888E-1,-3.770000041E-1,4.050000012E-1,6.381833568E-1
6.175848060E0,-3.959999979E-1,-4.589999914E-1,4.990000129E-1,7.851738682E-1
6.185584986E0,-5.149999857E-1,-5.109999776E-1,5.640000105E-1,9.189352394E-1
6.195321909E0,-6.420000196E-1,-5.000000000E-1,5.630000234E-1,9.895115216E-1
6.205058832E0,-7.379999757E-1,-5.170000196E-1,3.950000107E-1,9.838485619E-1
6.214795526E0,-8.320000172E-1,-5.019999743E-1,1.319999993E-1,9.806385688E-1
6.224532438E0,-9.700000286E-1,-4.639999866E-1,-1.580000073E-1,1.086811872E0
6.234269286E0,-1.144999981E0,-3.009999990E-1,-4.440000057E-1,1.264421591E0
6.244006221E0,-1.347000003E0,-7.900000364E-2,-7.379999757E-1,1.537951226E0
6.253743144E0,-1.491000056E0,6.400000304E-2,-9.769999981E-1,1.783733771E0
6.263480058E0,-1.537999988E0,1.720000058E-1,-1.235000014E0,1.979962878E0
6.273216981E0,-1.623999953E0,2.800000012E-1,-1.476999998E0,2.212985505E0
6.282953689E0,-1.710000038E0,3.919999897E-1,-1.608000040E0,2.379795842E0
6.292690611E0,-1.894000053E0,4.869999886E-1,-1.718000054E0,2.603061539E0
6.302427444E0,-2.096999884E0,5.749999881E-1,-1.776999950E0,2.808159953E0
6.312164370E0,-2.276000023E0,6.460000277E-1,-1.779999971E0,2.960724918E0
6.321901298E0,-2.401999950E0,6.850000024E-1,-1.745000005E0,3.046941710E0
6.331637992E0,-2.404000044E0,6.710000038E-1,-1.652999997E0,2.993637621E0
6.341374913E0,-2.384000063E0,6.420000196E-1,-1.503999949E0,2.890957656E0
6.351111836E0,-2.404000044E0,6.380000114E-1,-1.309999943E0,2.811113672E0
6.360848789E0,-2.431999922E0,5.889999866E-1,-1.039000034E0,2.709440104E0
6.370585637E0,-2.509999990E0,5.759999752E-1,-8.119999766E-1,2.700225895E0
6.380322573E0,-2.690000057E0,5.609999895E-1,-6.010000110E-1,2.812831724E0
6.390059496E0,-2.861999989E0,5.799999833E-1,-4.020000100E-1,2.947719105E0
6.399796443E0,-2.984999895E0,5.580000281E-1,-2.060000002E-1,3.043685990E0
6.409533137E0,-3.069000006E0,5.360000134E-1,-3.500000015E-2,3.115651144E0
6.419270086E0,-3.019999981E0,5.299999714E-1,1.689999998E-1,3.070807850E0
6.429007010E0,-3.109999895E0,5.960000157E-1,4.810000062E-1,3.202916854E0
6.438743835E0,-3.121000051E0,7.689999938E-1,9.649999738E-1,3.356073191E0
6.448480756E0,-3.095000029E0,9.190000296E-1,1.289999962E0,3.476734982E0
6.458217459E0,-2.963000059E0,1.024999976E0,1.526999950E0,3.487366220E0
6.467954351E0,-2.763999939E0,1.108999968E0,1.718999982E0,3.438682528E0
6.477691274E0,-2.466000080E0,1.161999941E0,1.894000053E0,3.319433153E0
6.487428198E0,-2.105999947E0,1.177000046E0,1.945000052E0,3.098965971E0
6.497165047E0,-1.728999972E0,1.202000022E0,1.840000033E0,2.796398591E0
6.506901939E0,-1.419000030E0,1.245000005E0,1.623000026E0,2.489521074E0
6.516638862E0,-1.144000053E0,1.439000010E0,1.231999993E0,2.212980148E0
6.526375804E0,-7.379999757E-1,1.544000030E0,1.205999970E0,2.093565376E0
6.536112498E0,-2.739999890E-1,1.381999969E0,1.554000020E0,2.097597667E0
6.545849395E0,1.509999931E-1,1.264000058E0,1.493000031E0,1.962026054E0
6.555586318E0,3.179999888E-1,1.307000041E0,1.009999990E0,1.682103766E0
6.565323157E0,4.350000024E-1,1.299000025E0,6.090000272E-1,1.499168803E0
6.575060049E0,6.269999743E-1,1.075999975E0,5.270000100E-1,1.352269916E0
6.584796972E0,8.460000157E-1,7.340000272E-1,5.019999743E-1,1.227385856E0
6.594533895E0,9.670000076E-1,4.180000126E-1,2.409999967E-1,1.080691456E0
6.604270589E0,9.340000153E-1,1.840000004E-1,-1.129999980E-1,9.586349817E-1
6.614007510E0,8.920000196E-1,-3.400000185E-2,-3.389999866E-1,9.548513109E-1
6.623744425E0,8.519999981E-1,-2.750000060E-1,-2.809999883E-1,9.383442830E-1
6.633481272E0,7.820000052E-1,-4.970000088E-1,-1.999999955E-2,9.267863923E-1
6.643218193E0,7.699999809E-1,-6.309999824E-1,2.969999909E-1,1.038879176E0
6.652955116E0,7.900000215E-1,-7.300000191E-1,5.189999938E-1,1.194303586E0
6.662691782E0,9.039999843E-1,-8.309999704E-1,6.980000138E-1,1.412437943E0
6.672428703E0,1.177000046E0,-9.570000172E-1,6.909999847E-1,1.666931048E0
6.682165601E0,1.455999970E0,-1.116000056E0,6.079999804E-1,1.932629301E0
6.691902450E0,1.733999968E0,-1.238999963E0,5.350000262E-1,2.197294205E0
6.701639367E0,1.963999987E0,-1.337000012E0,3.160000145E-1,2.396814759E0
6.711376290E0,2.203000069E0,-1.411000013E0,7.699999958E-2,2.617261802E0
6.721112969E0,2.355000019E0,-1.453999996E0,-1.010000035E-1,2.769538243E0
6.730849890E0,2.338999987E0,-1.440000057E0,-1.519999951E-1,2.750931679E0
6.740586823E0,2.150000095E0,-1.327000022E0,-1.749999970E-1,2.532598363E0
6.750323746E0,1.863999963E0,-1.213000059E0,-2.579999864E-1,2.238845461E0
6.760060595E0,1.623999953E0,-1.149999976E0,-4.250000119E-1,2.034822057E0
6.769797516E0,1.381000042E0,-1.085000038E0,-6.719999909E-1,1.880417556E0
6.779534448E0,1.177000046E0,-1.037999988E0,-9.300000072E-1,1.824191080E0
6.789271385E0,9.710000157E-1,-1.021999955E0,-1.187000036E0,1.842903694E0
6.799008065E0,7.160000205E-1,-9.620000124E-1,-1.373999953E0,1.823725836E0
6.808744986E0,4.239999950E-1,-8.709999919E-1,-1.508999944E0,1.793180920E0
6.818481890E0,1.230000034E-1,-7.409999967E-1,-1.626000047E0,1.791113103E0
6.828218743E0,-1.190000027E-1,-6.190000176E-1,-1.703999996E0,1.816848373E0
6.837955664E0,-3.059999943E-1,-5.270000100E-1,-1.725999951E0,1.830420946E0
6.847692597E0,-4.219999909E-1,-4.510000050E-1,-1.728999972E0,1.836008143E0
6.857429291E0,-5.180000067E-1,-3.459999859E-1,-1.690000057E0,1.801149686E0
6.867166193E0,-5.550000072E-1,-2.500000000E-1,-1.606999993E0,1.718421947E0
6.876903111E0,-5.770000219E-1,-1.360000074E-1,-1.444000006E0,1.560948764E0
6.886640034E0,-6.039999723E-1,2.400000021E-2,-1.220000029E0,1.361540318E0
6.896376883E0,-5.640000105E-1,1.459999979E-1,-9.860000014E-1,1.145254563E0
6.906113784E0,-4.709999859E-1,2.129999995E-1,-7.009999752E-1,8.709827506E-1
6.915850487E0,-3.389999866E-1,2.169999927E-1,-3.840000033E-1,5.562966748E-1
6.925587408E0,-2.099999934E-1,1.439999938E-1,-1.150000021E-1,2.793939798E-1
6.935324312E0,-1.710000038E-1,6.199999899E-2,5.600000173E-2,1.903181583E-1
6.945061235E0,-1.809999943E-1,-1.200000010E-2,1.560000032E-1,2.392509121E-1
6.954798084E0,-1.889999956E-1,-5.499999970E-2,3.039999902E-1,3.621629362E-1
6.964535005E0,-1.319999993E-1,-1.430000067E-1,4.149999917E-1,4.583644781E-1
6.974271928E0,-1.019999981E-1,-1.860000044E-1,4.230000079E-1,4.732113776E-1
6.984008636E0,-9.099999815E-2,-1.669999957E-1,4.219999909E-1,4.628757831E-1
6.993745557E0,-1.159999967E-1,-1.199999973E-1,3.989999890E-1,4.325008553E-1
7.003482480E0,-1.209999993E-1,-3.400000185E-2,3.389999866E-1,3.615494308E-1
7.013219403E0,-1.169999987E-1,6.700000167E-2,1.700000018E-1,2.169746541E-1
7.022956233E0,-1.070000008E-1,1.570000052E-1,-2.999999933E-2,1.923486464E-1
7.032693154E0,-8.500000089E-2,2.259999961E-1,-2.560000122E-1,3.519048232E-1
7.042430101E0,-2.500000037E-2,2.989999950E-1,-4.600000083E-1,5.492048841E-1
7.052167024E0,3.500000015E-2,4.339999855E-1,-6.309999824E-1,7.666433102E-1
7.061903723E0,7.000000030E-2,5.590000153E-1,-7.680000067E-1,9.524731111E-1
7.071640644E0,7.599999756E-2,6.940000057E-1,-8.069999814E-1,1.067080586E0
7.081377576E0,6.599999964E-2,7.779999971E-1,-8.259999752E-1,1.136624808E0
7.091114425E0,3.900000080E-2,8.389999866E-1,-8.240000010E-1,1.176612927E0
7.100851375E0,6.000000052E-3,8.399999738E-1,-7.749999762E-1,1.142917722E0
7.110588074E0,-1.300000027E-2,8.489999771E-1,-6.930000186E-1,1.096001363E0
7.120324990E0,-4.999999888E-3,8.280000091E-1,-5.730000138E-1,1.006944900E0
7.130061913E0,4.600000009E-2,8.100000024E-1,-4.040000141E-1,9.063288670E-1
7.139798851E0,1.469999999E-1,7.900000215E-1,-2.469999939E-1,8.406652312E-1
7.149535699E0,2.689999938E-1,7.279999852E-1,-7.599999756E-2,7.798211172E-1
7.159272597E0,4.169999957E-1,6.430000067E-1,5.999999866E-2,7.687249214E-1
7.169009520E0,5.109999776E-1,5.360000134E-1,1.519999951E-1,7.559900726E-1
7.178746463E0,6.200000048E-1,4.589999914E-1,3.000000119E-1,8.276962034E-1
7.188483157E0,7.020000219E-1,3.930000067E-1,3.939999938E-1,8.958175211E-1
7.198220063E0,7.459999919E-1,3.219999969E-1,4.189999998E-1,9.141996422E-1
7.207956945E0,7.879999876E-1,2.669999897E-1,4.140000045E-1,9.293164040E-1
7.217693866E0,7.979999781E-1,2.049999982E-1,4.309999943E-1,9.298332965E-1
7.227430800E0,7.799999714E-1,1.809999943E-1,4.560000002E-1,9.214645699E-1
7.237167723E0,7.379999757E-1,1.770000011E-1,4.460000098E-1,8.802777818E-1
7.246904660E0,7.049999833E-1,1.829999983E-1,3.829999864E-1,8.229234262E-1
7.256641354E0,6.399999857E-1,1.840000004E-1,3.089999855E-1,7.341232681E-1
7.266378270E0,6.209999919E-1,2.259999961E-1,2.520000041E-1,7.072630276E-1
7.276115099E0,5.920000076E-1,2.649999857E-1,1.539999992E-1,6.666370836E-1
7.285852020E0,5.809999704E-1,2.980000079E-1,5.999999866E-2,6.557171419E-1
7.295588953E0,5.699999928E-1,3.269999921E-1,-5.200000107E-2,6.591911611E-1
7.305325609E0,5.120000243E-1,3.950000107E-1,-3.160000145E-1,7.197395658E-1
7.315062761E0,4.779999852E-1,5.019999743E-1,-5.220000148E-1,8.677395781E-1
7.324799440E0,5.329999924E-1,5.600000024E-1,2.400000021E-2,7.734759172E-1
7.334536380E0,6.729999781E-1,5.279999971E-1,7.820000052E-1,1.158981007E0
7.344273228E0,7.979999781E-1,4.519999921E-1,7.839999795E-1,1.206550424E0
7.354010135E0,9.739999771E-1,2.860000134E-1,6.140000224E-1,1.186367561E0
7.363747045E0,1.154000044E0,6.499999762E-2,9.369999766E-1,1.487921388E0
7.373483739E0,1.220000029E0,-1.829999983E-1,1.340000033E0,1.821397584E0
7.383220645E0,1.225000024E0,-4.090000093E-1,1.521000028E0,1.995331338E0
7.392957568E0,1.182999969E0,-5.970000029E-1,1.491999984E0,1.995485375E0
7.402694496E0,1.077000022E0,-7.189999819E-1,1.606999993E0,2.063816610E0
7.412431344E0,1.016999960E0,-7.390000224E-1,1.717000008E0,2.128027015E0
7.422168289E0,9.499999881E-1,-7.990000248E-1,1.800999999E0,2.187350455E0
7.431905203E0,9.520000219E-1,-8.289999962E-1,1.947999954E0,2.321260187E0
7.441642136E0,9.359999895E-1,-8.569999933E-1,2.039000034E0,2.401679851E0
7.451378830E0,9.039999843E-1,-8.119999766E-1,2.048000097E0,2.381357666E0
7.461115751E0,8.759999871E-1,-8.009999990E-1,2.032000065E0,2.353295825E0
7.470852589E0,8.109999895E-1,-8.190000057E-1,1.935999990E0,2.253126262E0
7.480589510E0,6.840000153E-1,-8.259999752E-1,1.700999975E0,2.010853773E0
7.490326423E0,5.239999890E-1,-8.389999866E-1,1.363000035E0,1.684121748E0
7.500063099E0,3.829999864E-1,-8.149999976E-1,9.670000076E-1,1.321364068E0
7.509800020E0,2.689999938E-1,-8.249999881E-1,4.930000007E-1,9.980155198E-1
7.519536962E0,1.689999998E-1,-8.199999928E-1,5.799999833E-2,8.392407211E-1
7.529273885E0,8.699999750E-2,-8.560000062E-1,-4.490000010E-1,9.705184239E-1
7.539010714E0,0.000000000E0,-8.590000272E-1,-8.980000019E-1,1.242692661E0
7.548747635E0,-4.600000009E-2,-8.600000143E-1,-1.185999990E0,1.465712114E0
7.558484583E0,-7.500000298E-2,-8.939999938E-1,-1.333999991E0,1.607612194E0
7.568221277E0,-1.129999980E-1,-9.070000052E-1,-1.360999942E0,1.639432478E0
7.577958198E0,-1.420000046E-1,-9.089999795E-1,-1.277999997E0,1.574715516E0
7.587695111E0,-1.309999973E-1,-9.240000248E-1,-1.149999976E0,1.481025655E0
7.597432034E0,-7.000000030E-2,-9.279999733E-1,-9.879999757E-1,1.357286964E0
7.607168882E0,1.700000092E-2,-9.480000138E-1,-8.460000157E-1,1.270712026E0
7.616905803E0,8.799999952E-2,-9.929999709E-1,-5.970000029E-1,1.161981904E0
7.626642732E0,1.780000031E-1,-1.062999964E0,-1.879999936E-1,1.094073545E0
7.636379426E0,3.330000043E-1,-1.152999997E0,2.399999946E-1,1.223886430E0
7.646116342E0,4.830000103E-1,-1.195999980E0,5.159999728E-1,1.389230339E0
7.655853265E0,4.930000007E-1,-1.258000016E0,7.429999709E-1,1.541966925E0
7.665590198E0,4.550000131E-1,-1.294000030E0,9.020000100E-1,1.641665345E0
7.675327046E0,3.230000138E-1,-1.248000026E0,1.001000047E0,1.632125659E0
7.685063976E0,2.169999927E-1,-1.190000057E0,9.869999886E-1,1.561204058E0
7.694800900E0,1.190000027E-1,-1.136000037E0,8.330000043E-1,1.413699435E0
7.704537609E0,9.200000018E-2,-1.108000040E0,6.389999986E-1,1.282360748E0
7.714274530E0,1.319999993E-1,-1.128999949E0,3.720000088E-1,1.196013750E0
7.724011373E0,1.580000073E-1,-1.072999954E0,1.010000035E-1,1.089263010E0
7.733748294E0,1.580000073E-1,-9.840000272E-1,-1.070000008E-1,1.002331809E0
7.743485227E0,1.389999986E-1,-8.389999866E-1,-3.240000010E-1,9.100648207E-1
7.753222154E0,4.699999839E-2,-6.510000229E-1,-5.440000296E-1,8.496740915E-1
7.762958849E0,-4.899999872E-2,-4.560000002E-1,-6.620000005E-1,8.053452680E-1
7.772695770E0,-1.819999963E-1,-2.739999890E-1,-7.810000181E-1,8.474438158E-1
7.782432708E0,-2.269999981E-1,-1.199999973E-1,-9.039999843E-1,9.397579316E-1
7.792169631E0,-2.919999957E-1,-6.100000069E-2,-9.890000224E-1,1.033008249E0
7.801906493E0,-3.210000098E-1,2.000000095E-3,-8.799999952E-1,9.367203413E-1
7.811643414E0,-3.440000117E-1,5.999999866E-2,-8.619999886E-1,9.300430034E-1
7.821380351E0,-3.420000076E-1,1.070000008E-1,-9.449999928E-1,1.010662155E0
7.831117046E0,-3.519999981E-1,1.809999943E-1,-9.259999990E-1,1.007045677E0
7.840853953E0,-3.790000081E-1,2.409999967E-1,-9.100000262E-1,1.014801484E0
7.850590876E0,-3.799999952E-1,3.019999862E-1,-8.809999824E-1,1.005865278E0
7.860327794E0,-3.420000076E-1,3.589999974E-1,-8.610000014E-1,9.935622808E-1
7.870064642E0,-3.490000069E-1,4.399999976E-1,-8.989999890E-1,1.060000935E0
7.879801563E0,-3.989999890E-1,5.289999843E-1,-9.010000229E-1,1.118410933E0
7.889538258E0,-3.170000017E-1,6.060000062E-1,-7.289999723E-1,9.995828971E-1
7.899275165E0,-2.720000148E-1,6.209999919E-1,-7.250000238E-1,9.925976186E-1
7.909012092E0,-2.759999931E-1,6.959999800E-1,-6.389999986E-1,9.843337678E-1
7.918749049E0,-2.969999909E-1,7.910000086E-1,-5.440000296E-1,1.004901010E0
7.928485897E0,-3.829999864E-1,8.460000157E-1,-4.639999866E-1,1.038123790E0
7.938222813E0,-4.769999981E-1,8.629999757E-1,-3.670000136E-1,1.052134481E0
7.947959722E0,-5.529999733E-1,9.179999828E-1,-2.720000148E-1,1.105674883E0
7.957696417E0,-5.749999881E-1,9.409999847E-1,-2.049999982E-1,1.121664369E0
7.967433317E0,-5.619999766E-1,9.490000010E-1,-1.710000038E-1,1.116103031E0
7.977170240E0,-5.720000267E-1,9.559999704E-1,-1.449999958E-1,1.123452257E0
7.986907168E0,-6.060000062E-1,9.509999752E-1,-2.700000070E-2,1.127992004E0
7.996644016E0,-6.470000148E-1,9.670000076E-1,1.070000008E-1,1.168395068E0
8.006380923E0,-6.759999990E-1,9.580000043E-1,2.119999975E-1,1.191504933E0
8.016117846E0,-6.600000262E-1,9.240000248E-1,3.050000072E-1,1.175755538E0
8.025854541E0,-6.150000095E-1,8.840000033E-1,3.689999878E-1,1.138350565E0
8.035591462E0,-5.759999752E-1,8.230000138E-1,4.259999990E-1,1.091137477E0
8.045328384E0,-5.230000019E-1,7.680000067E-1,5.120000243E-1,1.060894451E0
8.055065307E0,-4.769999981E-1,7.260000110E-1,5.630000234E-1,1.035168605E0
8.064802170E0,-4.920000136E-1,6.639999747E-1,6.010000110E-1,1.021841961E0
8.074539096E0,-5.580000281E-1,6.019999981E-1,5.419999957E-1,9.836320575E-1
8.084276019E0,-5.860000253E-1,4.979999959E-1,4.390000105E-1,8.855060896E-1
8.094012718E0,-5.690000057E-1,4.110000134E-1,2.669999897E-1,7.509800344E-1
8.103749659E0,-5.860000253E-1,3.869999945E-1,8.900000155E-2,7.078743007E-1
8.113486507E0,-5.709999800E-1,3.829999864E-1,-5.700000003E-2,6.899122892E-1
8.123223447E0,-5.590000153E-1,4.370000064E-1,-1.220000014E-1,7.199541812E-1
8.132960370E0,-6.050000191E-1,5.440000296E-1,-2.419999987E-1,8.488374724E-1
8.142697302E0,-6.250000000E-1,6.499999762E-1,-2.870000005E-1,9.463054313E-1
8.152434007E0,-3.720000088E-1,5.960000157E-1,2.870000005E-1,7.589262320E-1
8.162170928E0,-1.600000076E-2,4.510000050E-1,1.003999949E0,1.100760147E0
8.171907851E0,2.489999980E-1,3.989999890E-1,1.268000007E0,1.352414880E0
8.181644774E0,4.499999881E-1,3.089999855E-1,1.460000038E0,1.558711356E0
8.191381622E0,5.320000052E-1,1.459999979E-1,1.725999951E0,1.812019822E0
8.201118543E0,5.820000172E-1,-8.200000226E-2,1.906000018E0,1.994563634E0
8.210855466E0,6.970000267E-1,-2.820000052E-1,1.917000055E0,2.059179995E0
8.220592156E0,7.350000143E-1,-4.429999888E-1,1.694000006E0,1.898976048E0
8.230329092E0,7.239999771E-1,-4.939999878E-1,1.192999959E0,1.480358354E0
8.240065974E0,6.520000100E-1,-5.000000000E-1,5.849999785E-1,1.008627279E0
8.249802895E0,5.799999833E-1,-4.900000095E-1,1.469999999E-1,7.733750642E-1
8.259539832E0,5.299999714E-1,-4.580000043E-1,-1.659999937E-1,7.198749694E-1
8.269276755E0,5.130000114E-1,-4.079999924E-1,-3.420000076E-1,7.393219939E-1
8.279013436E0,4.819999933E-1,-3.300000131E-1,-4.020000100E-1,7.091036668E-1
8.288750587E0,5.450000167E-1,-2.849999964E-1,-2.800000012E-1,6.757588452E-1
8.298487292E0,6.809999943E-1,-3.170000017E-1,-4.500000179E-2,7.525124540E-1
8.308224116E0,8.180000186E-1,-3.919999897E-1,3.000000119E-1,9.553994084E-1
8.317961039E0,9.290000200E-1,-4.639999866E-1,6.959999800E-1,1.250101195E0
8.327697948E0,9.639999866E-1,-5.540000200E-1,1.032999992E0,1.517663000E0
8.337434871E0,9.909999967E-1,-6.639999747E-1,1.340000033E0,1.794039311E0
8.347171575E0,9.909999967E-1,-7.329999804E-1,1.580999970E0,2.004727131E0
8.356908496E0,9.819999933E-1,-8.149999976E-1,1.615000010E0,2.058342540E0
8.366645405E0,1.105000019E0,-9.350000024E-1,1.481999993E0,2.071611457E0
8.376382328E0,1.302999973E0,-1.097000003E0,1.268000007E0,2.123450483E0
8.386119176E0,1.422000051E0,-1.231999993E0,9.100000262E-1,2.089978032E0
8.395856083E0,1.378000021E0,-1.264000058E0,5.590000153E-1,1.951681639E0
8.405593005E0,1.258000016E0,-1.251000047E0,3.129999936E-1,1.801536609E0
8.415329700E0,1.177999973E0,-1.250000000E0,4.600000009E-2,1.718225811E0
8.425066636E0,1.156999946E0,-1.284000039E0,-2.540000081E-1,1.746946187E0
8.434803559E0,1.164999962E0,-1.343000054E0,-4.370000064E-1,1.830803939E0
8.444540402E0,1.121000051E0,-1.434999943E0,-4.519999921E-1,1.876211594E0
8.454277323E0,1.034999967E0,-1.468000054E0,-3.750000000E-1,1.834904382E0
8.464014232E0,8.069999814E-1,-1.450000048E0,-3.160000145E-1,1.689261708E0
8.473751155E0,4.699999988E-1,-1.307999969E0,-3.989999890E-1,1.446016911E0
8.483487859E0,2.230000049E-1,-1.259999990E0,-3.950000107E-1,1.339161673E0
8.493224780E0,1.499999966E-2,-1.258000016E0,-4.309999943E-1,1.329868428E0
8.502961703E0,-6.300000101E-2,-1.286000013E0,-4.560000002E-1,1.365906671E0
8.512698551E0,-1.969999969E-1,-1.222000003E0,-5.609999895E-1,1.358975347E0
8.522435458E0,-3.149999976E-1,-1.080000043E0,-6.560000181E-1,1.302290718E0
8.532172381E0,-4.219999909E-1,-8.719999790E-1,-7.350000143E-1,1.216015204E0
8.541909294E0,-5.080000162E-1,-6.119999886E-1,-8.470000029E-1,1.161902323E0
8.551646008E0,-6.320000291E-1,-3.519999981E-1,-9.380000234E-1,1.184555646E0
8.561382920E0,-6.729999781E-1,-1.809999943E-1,-1.070000052E0,1.276945606E0
8.571119843E0,-6.589999795E-1,-4.300000146E-2,-1.228000045E0,1.394314915E0
8.580856719E0,-6.499999762E-1,7.100000232E-2,-1.297000051E0,1.452497883E0
8.590593640E0,-6.309999824E-1,2.269999981E-1,-1.360999942E0,1.517237891E0
8.600330568E0,-6.029999852E-1,4.129999876E-1,-1.358000040E0,1.542187434E0
8.610067491E0,-5.799999833E-1,6.010000110E-1,-1.284999967E0,1.532587977E0
8.619804181E0,-5.320000052E-1,7.609999776E-1,-1.223000050E0,1.535537070E0
8.629541102E0,-4.749999940E-1,8.569999933E-1,-1.179000020E0,1.533008490E0
8.639278059E0,-3.849999905E-1,9.070000052E-1,-1.120000005E0,1.491735236E0
8.649014907E0,-3.079999983E-1,9.049999714E-1,-1.055999994E0,1.424438463E0
8.658751804E0,-2.770000100E-1,9.070000052E-1,-1.013000011E0,1.387640817E0
8.668488727E0,-3.449999988E-1,8.849999905E-1,-9.049999714E-1,1.311973678E0
8.678225421E0,-4.289999902E-1,8.650000095E-1,-7.850000262E-1,1.244383803E0
8.687962376E0,-5.889999866E-1,8.489999771E-1,-7.229999900E-1,1.261130814E0
8.697699299E0,-7.559999824E-1,8.040000200E-1,-6.129999757E-1,1.262426622E0
8.707436133E0,-9.049999714E-1,7.749999762E-1,-5.410000086E-1,1.308560629E0
8.717173054E0,-9.959999919E-1,7.929999828E-1,-5.109999776E-1,1.371854924E0
8.726909977E0,-1.077999949E0,8.019999862E-1,-3.980000019E-1,1.401317905E0
8.736646900E0,-1.059000015E0,8.059999943E-1,-3.019999862E-1,1.364668830E0
8.746383613E0,-1.001999974E0,8.560000062E-1,-1.700000018E-1,1.328773856E0
8.756120535E0,-9.290000200E-1,9.039999843E-1,-8.200000226E-2,1.298838331E0
8.765857458E0,-8.420000076E-1,9.480000138E-1,2.899999917E-2,1.268270097E0
8.775594381E0,-7.229999900E-1,9.660000205E-1,1.239999980E-1,1.212955492E0
8.785331214E0,-6.069999933E-1,9.449999928E-1,2.000000030E-1,1.140821625E0
8.795068135E0,-4.880000055E-1,9.049999714E-1,2.509999871E-1,1.058380814E0
8.804805062E0,-3.659999967E-1,8.750000000E-1,3.339999914E-1,1.005553078E0
8.814541757E0,-2.689999938E-1,8.320000172E-1,4.120000005E-1,9.666069654E-1
8.824278640E0,-1.539999992E-1,8.050000072E-1,4.440000057E-1,9.321357285E-1
8.834015563E0,-4.999999888E-3,7.639999986E-1,5.419999957E-1,9.367416897E-1
8.843752471E0,1.650000066E-1,6.940000057E-1,6.060000062E-1,9.360005436E-1
8.853489319E0,3.529999852E-1,6.269999743E-1,6.710000038E-1,9.838592188E-1
8.863226255E0,4.810000062E-1,5.429999828E-1,7.829999924E-1,1.067379490E0
8.872963154E0,5.759999752E-1,4.709999859E-1,8.420000076E-1,1.123646284E0
8.882699848E0,6.529999971E-1,4.129999876E-1,8.909999728E-1,1.179346827E0
8.892436769E0,6.980000138E-1,3.619999886E-1,9.279999733E-1,1.216319021E0
8.902173683E0,7.530000210E-1,3.249999881E-1,9.380000234E-1,1.245984778E0
8.911910531E0,7.739999890E-1,3.260000050E-1,8.709999919E-1,1.209955773E0
8.921647423E0,6.819999814E-1,4.309999943E-1,7.179999948E-1,1.080004149E0
8.931384346E0,7.990000248E-1,4.149999917E-1,9.300000072E-1,1.294421124E0
8.941121059E0,9.499999881E-1,3.569999933E-1,1.304999948E0,1.653170843E0
8.950857981E0,1.097000003E0,3.750000000E-1,1.353000045E0,1.781752824E0
8.960594918E0,1.222000003E0,3.479999900E-1,1.309000015E0,1.824244786E0
8.970331841E0,1.322000027E0,2.010000050E-1,1.391000032E0,1.929498941E0
8.980068641E0,1.332000017E0,4.399999976E-2,1.506999969E0,2.011767619E0
8.989805562E0,1.256000042E0,-4.999999888E-3,1.504999995E0,1.960251538E0
8.999542505E0,1.144999981E0,-3.999999911E-2,1.524999976E0,1.907419693E0
9.009279428E0,1.110000014E0,-1.070000008E-1,1.501999974E0,1.870709212E0
9.019016108E0,1.067000031E0,-1.630000025E-1,1.383000016E0,1.754350909E0
9.028753029E0,1.090999961E0,-2.649999857E-1,1.297999978E0,1.716190505E0
9.038489952E0,1.101999998E0,-3.700000048E-1,1.200000048E0,1.670719639E0
9.048226790E0,1.121000051E0,-4.079999924E-1,1.097000003E0,1.620652373E0
9.057963711E0,1.164999962E0,-4.690000117E-1,1.004999995E0,1.608480933E0
9.067700650E0,1.187999964E0,-5.009999871E-1,9.330000281E-1,1.591487968E0
9.077437573E0,1.218999982E0,-5.419999957E-1,8.989999890E-1,1.608703183E0
9.087174277E0,1.225999951E0,-6.129999757E-1,8.650000095E-1,1.620823824E0
9.096911232E0,1.248000026E0,-6.629999876E-1,8.299999833E-1,1.638893840E0
9.106648155E0,1.253999949E0,-7.039999962E-1,7.639999986E-1,1.628443387E0
9.116385017E0,1.274999976E0,-8.149999976E-1,6.970000267E-1,1.666030904E0
9.126121938E0,1.310999990E0,-9.330000281E-1,6.209999919E-1,1.724775642E0
9.135858861E0,1.299000025E0,-1.008999944E0,4.819999933E-1,1.714002901E0
9.145595560E0,1.185999990E0,-1.024999976E0,2.680000067E-1,1.590297120E0
9.155332482E0,1.078999996E0,-1.059999943E0,2.899999917E-2,1.512839010E0
9.165069386E0,1.004999995E0,-1.125000000E0,-2.790000141E-1,1.534109187E0
9.174806309E0,9.729999900E-1,-1.197999954E0,-6.370000243E-1,1.669641249E0
9.184543152E0,9.060000181E-1,-1.243999958E0,-9.620000124E-1,1.814887311E0
9.194280073E0,8.939999938E-1,-1.241999984E0,-1.217000008E0,1.955220951E0
9.204016996E0,9.340000153E-1,-1.254999995E0,-1.358999968E0,2.072260102E0
9.213753919E0,9.929999709E-1,-1.291000009E0,-1.353000045E0,2.117389687E0
9.223490566E0,1.044000030E0,-1.310999990E0,-1.304999948E0,2.124072009E0
9.233227487E0,1.115000010E0,-1.338999987E0,-1.134999990E0,2.079512194E0
9.242964424E0,1.195000052E0,-1.368999958E0,-9.100000262E-1,2.032310522E0
9.252701272E0,1.289000034E0,-1.437000036E0,-6.299999952E-1,2.030613254E0
9.262438174E0,1.437999964E0,-1.531999946E0,-3.269999921E-1,2.126451675E0
9.272175097E0,1.654999971E0,-1.674999952E0,5.799999833E-2,2.355422201E0
9.281911791E0,1.815999985E0,-1.825999975E0,5.389999747E-1,2.631093466E0
9.291648713E0,1.832999945E0,-1.909999967E0,1.037999988E0,2.843489519E0
9.301385621E0,1.774000049E0,-1.960000038E0,1.513000011E0,3.045955574E0
9.311122544E0,1.702000022E0,-2.052999973E0,1.781000018E0,3.206801215E0
9.320859397E0,1.659999967E0,-2.151999950E0,1.975999951E0,3.360249914E0
9.330596318E0,1.549999952E0,-2.223999977E0,1.912999988E0,3.317867493E0
9.340333226E0,1.401000023E0,-2.230999947E0,1.598999977E0,3.081714256E0
9.350070129E0,1.292000055E0,-2.252000093E0,1.057000041E0,2.803215591E0
9.359806839E0,1.064000010E0,-2.209000111E0,3.980000019E-1,2.483985007E0
9.369543760E0,7.929999828E-1,-2.118000031E0,-2.210000008E-1,2.272358709E0
9.379280673E0,5.379999876E-1,-1.914000034E0,-7.860000134E-1,2.137904614E0
9.389017521E0,3.880000114E-1,-1.705999970E0,-1.184000015E0,2.112542531E0
9.398754437E0,3.240000010E-1,-1.536999941E0,-1.455999970E0,2.141793812E0
9.408491360E0,2.210000008E-1,-1.371999979E0,-1.577999949E0,2.102690843E0
9.418228049E0,1.420000046E-1,-1.241000056E0,-1.616000056E0,2.042474314E0
9.427964991E0,2.999999933E-2,-1.133999944E0,-1.567000031E0,1.934514143E0
9.437701914E0,-8.699999750E-2,-1.024000049E0,-1.360000014E0,1.704624633E0
9.447438841E0,-2.199999988E-1,-9.269999862E-1,-1.138000011E0,1.484174181E0
9.457175764E0,-3.400000036E-1,-8.690000176E-1,-9.449999928E-1,1.328076059E0
9.466912608E0,-4.329999983E-1,-8.209999800E-1,-7.559999824E-1,1.197107321E0
9.476649529E0,-5.030000210E-1,-7.590000033E-1,-6.639999747E-1,1.126936552E0
9.486386227E0,-5.559999943E-1,-7.160000205E-1,-6.079999804E-1,1.091538364E0
9.496123197E0,-5.889999866E-1,-6.729999781E-1,-5.609999895E-1,1.055732420E0
9.505860120E0,-6.790000200E-1,-6.380000114E-1,-5.680000186E-1,1.091196162E0
9.515597058E0,-8.169999719E-1,-6.019999981E-1,-5.780000091E-1,1.167894243E0
9.525333925E0,-9.470000267E-1,-6.029999852E-1,-5.680000186E-1,1.258189991E0
9.535070846E0,-1.078999996E0,-6.090000272E-1,-5.370000005E-1,1.350366997E0
9.544807774E0,-1.245000005E0,-6.299999952E-1,-4.600000083E-1,1.469191959E0
9.554544663E0,-1.399999976E0,-6.359999776E-1,-3.160000145E-1,1.569825441E0
9.564281358E0,-1.524999976E0,-6.940000057E-1,-1.270000041E-1,1.680294598E0
9.574018274E0,-1.605999947E0,-7.670000196E-1,1.010000035E-1,1.782617699E0
9.583755222E0,-1.699000001E0,-8.429999948E-1,3.659999967E-1,1.931632986E0
9.593492140E0,-1.835999966E0,-8.199999928E-1,6.050000191E-1,2.099838300E0
9.603228988E0,-1.983000040E0,-7.599999905E-1,8.009999990E-1,2.269689438E0
9.612965895E0,-2.084000111E0,-7.039999962E-1,9.219999909E-1,2.385111410E0
9.622702604E0,-2.098000050E0,-6.779999733E-1,1.003000021E0,2.422250444E0
9.632439755E0,-2.055000067E0,-5.870000124E-1,9.440000057E-1,2.336392583E0
9.642176450E0,-1.983000040E0,-4.720000029E-1,7.360000014E-1,2.167203074E0
9.651913395E0,-1.919999957E0,-4.129999876E-1,5.220000148E-1,2.032105519E0
9.661650323E0,-1.911999941E0,-3.849999905E-1,3.899999857E-1,1.988986867E0
9.671387265E0,-1.985000014E0,-2.759999931E-1,2.939999998E-1,2.025546112E0
9.681124113E0,-2.092999935E0,-1.580000073E-1,2.259999961E-1,2.111087097E0
9.690861068E0,-2.086999893E0,-9.099999815E-2,1.879999936E-1,2.097425458E0
9.700597749E0,-2.022000074E0,-6.199999899E-2,2.290000021E-1,2.035870650E0
9.710334670E0,-1.940000057E0,-3.299999982E-2,2.280000001E-1,1.953630779E0
9.720071592E0,-1.871999979E0,-1.999999955E-2,2.590000033E-1,1.889937809E0
9.729808487E0,-1.866000056E0,3.599999845E-2,2.689999938E-1,1.885633370E0
9.739545335E0,-1.830999970E0,6.899999827E-2,2.759999931E-1,1.852970018E0
9.749282256E0,-1.748000026E0,6.100000069E-2,2.750000060E-1,1.770550788E0
9.759019183E0,-1.662999988E0,9.899999946E-2,2.820000052E-1,1.689643146E0
9.768756106E0,-1.580000043E0,1.319999993E-1,2.899999917E-1,1.611807721E0
9.778492835E0,-1.485999942E0,1.780000031E-1,3.100000024E-1,1.528391255E0
9.788229756E0,-1.388000011E0,1.899999976E-1,3.619999886E-1,1.446958197E0
9.797966679E0,-1.304000020E0,1.940000057E-1,4.460000098E-1,1.391750000E0
9.807703592E0,-1.192999959E0,1.710000038E-1,5.260000229E-1,1.314977539E0
9.817440440E0,-1.088000059E0,1.070000008E-1,6.100000143E-1,1.251915790E0
9.827177371E0,-9.980000257E-1,2.600000054E-2,7.269999981E-1,1.234993542E0
9.836914294E0,-9.430000186E-1,-3.999999911E-2,6.980000138E-1,1.173905045E0
9.846651003E0,-1.039000034E0,-1.499999966E-2,4.110000134E-1,1.117437731E0
9.856387924E0,-8.820000291E-1,-9.099999815E-2,4.620000124E-1,9.998245158E-1
9.866124842E0,-4.979999959E-1,-3.650000095E-1,9.330000281E-1,1.118802063E0
9.875861690E0,6.000000052E-3,-6.240000129E-1,1.402999997E0,1.535519784E0
9.885598597E0,3.650000095E-1,-8.790000081E-1,1.883999944E0,2.110763324E0
9.895335520E0,4.699999988E-1,-1.074000001E0,2.243999958E0,2.531780364E0
9.905072433E0,3.689999878E-1,-1.274000049E0,2.421000004E0,2.760521352E0
9.914809128E0,1.209999993E-1,-1.442000031E0,2.453000069E0,2.848019387E0
9.924546040E0,-6.599999964E-2,-1.570000052E0,2.200999975E0,2.704377388E0
9.934282963E0,-2.220000029E-1,-1.552999973E0,1.564000010E0,2.215217586E0
9.944019866E0,-3.930000067E-1,-1.368999958E0,7.990000248E-1,1.633098567E0
9.953756714E0,-5.559999943E-1,-1.116000056E0,1.000000015E-1,1.250836568E0
9.963493621E0,-6.489999890E-1,-8.249999881E-1,-3.989999890E-1,1.122954566E0
9.973230544E0,-5.910000205E-1,-5.310000181E-1,-6.679999828E-1,1.038010607E0
9.982967473E0,-3.009999990E-1,-2.930000126E-1,-7.900000215E-1,8.947346203E-1
9.992704167E0,6.899999827E-2,-1.400000006E-1,-8.009999990E-1,8.160649474E-1
1.000244111E1,5.170000196E-1,-4.199999943E-2,-7.009999752E-1,8.720401283E-1
1.001217803E1,9.359999895E-1,8.999999613E-3,-5.580000281E-1,1.089743553E0
1.002191496E1,1.309000015E0,1.300000027E-2,-3.210000098E-1,1.347846819E0
1.003165181E1,1.552000046E0,-5.200000107E-2,-1.439999938E-1,1.559533309E0
1.004138874E1,1.593999982E0,-1.420000046E-1,-1.799999923E-2,1.600413679E0
1.005112566E1,1.460000038E0,-2.240000069E-1,2.099999972E-2,1.477232925E0
1.006086260E1,1.174000025E0,-2.820000052E-1,-2.899999917E-2,1.207742134E0
1.007059952E1,8.629999757E-1,-3.389999866E-1,-7.699999958E-2,9.303864514E-1
1.008033622E1,6.000000238E-1,-3.829999864E-1,-1.159999967E-1,7.212107996E-1
1.009007314E1,4.320000112E-1,-4.250000119E-1,-1.759999990E-1,6.310507265E-1
1.009980999E1,4.140000045E-1,-4.850000143E-1,-1.350000054E-1,6.518021318E-1
1.010954691E1,4.399999976E-1,-5.210000277E-1,-9.799999744E-2,6.889448644E-1
1.011928383E1,5.099999905E-1,-5.640000105E-1,-1.099999994E-2,7.604715656E-1
1.012902075E1,5.619999766E-1,-5.749999881E-1,8.799999952E-2,8.088343217E-1
1.013875744E1,6.299999952E-1,-5.780000091E-1,1.400000006E-1,8.663625134E-1
1.014849435E1,6.389999986E-1,-5.550000072E-1,1.749999970E-1,8.642748435E-1
1.015823128E1,5.640000105E-1,-5.000000000E-1,1.979999989E-1,7.792945601E-1
1.016796820E1,5.440000296E-1,-4.230000079E-1,1.860000044E-1,7.137653960E-1
1.017770505E1,4.629999995E-1,-3.379999995E-1,7.100000232E-2,5.776279075E-1
1.018744195E1,3.459999859E-1,-2.210000008E-1,-6.800000370E-2,4.161502026E-1
1.019717888E1,2.349999994E-1,-9.000000358E-2,-2.349999994E-1,3.443109061E-1
1.020691581E1,2.329999954E-1,7.000000216E-3,-3.950000107E-1,4.586534708E-1
1.021665250E1,2.910000086E-1,1.000000015E-1,-5.400000215E-1,6.215151072E-1
1.022638943E1,3.610000014E-1,2.269999981E-1,-7.110000253E-1,8.290784258E-1
1.023612635E1,3.569999933E-1,3.709999919E-1,-8.320000172E-1,9.784242525E-1
1.024586319E1,3.409999907E-1,4.670000076E-1,-9.700000286E-1,1.129278556E0
1.025560018E1,3.819999993E-1,4.460000098E-1,-1.047999978E0,1.201309270E0
1.026533704E1,3.939999938E-1,3.880000114E-1,-1.018000007E0,1.158492131E0
1.027507396E1,2.949999869E-1,3.729999959E-1,-9.850000143E-1,1.093791121E0
1.028481064E1,1.539999992E-1,3.389999866E-1,-9.160000086E-1,9.887835994E-1
1.029454756E1,2.300000004E-2,2.520000041E-1,-8.090000153E-1,8.476520670E-1
1.030428450E1,-1.040000021E-1,1.749999970E-1,-6.669999957E-1,6.973736399E-1
1.031402141E1,-2.029999942E-1,6.499999762E-2,-5.099999905E-1,5.527512891E-1
1.032375826E1,-3.219999969E-1,1.799999923E-2,-3.610000014E-1,4.840754063E-1
1.033349518E1,-4.379999936E-1,1.600000076E-2,-2.649999857E-1,5.121767144E-1
1.034323210E1,-5.030000210E-1,4.800000042E-2,-9.399999678E-2,5.139542981E-1
1.035296902E1,-5.400000215E-1,1.430000067E-1,-1.200000010E-2,5.587423602E-1
1.036270571E1,-5.690000057E-1,2.790000141E-1,4.899999872E-2,6.356123144E-1
1.037244263E1,-5.989999771E-1,4.499999881E-1,7.000000216E-3,7.492329156E-1
1.038217955E1,-5.889999866E-1,6.019999981E-1,-5.799999833E-2,8.442090865E-1
1.039191648E1,-5.630000234E-1,7.360000014E-1,-1.790000051E-1,9.437722343E-1
1.040165338E1,-5.630000234E-1,8.590000272E-1,-2.700000107E-1,1.061955780E0
1.041139023E1,-6.069999933E-1,9.399999976E-1,-3.540000021E-1,1.173611941E0
1.042112715E1,-6.259999871E-1,1.019000053E0,-4.000000060E-1,1.261046033E0
1.043086410E1,-7.070000172E-1,1.090999961E0,-4.490000010E-1,1.375402101E0
1.044060103E1,-7.400000095E-1,1.118999958E0,-4.379999936E-1,1.411242330E0
1.045033773E1,-8.000000119E-1,1.113999963E0,-3.650000095E-1,1.419232519E0
1.046007465E1,-8.870000243E-1,1.067000031E0,-2.730000019E-1,1.414138293E0
1.046981158E1,-9.610000253E-1,1.031999946E0,-1.220000014E-1,1.415425355E0
1.047954852E1,-1.037999988E0,1.029999971E0,2.099999972E-2,1.462458517E0
1.048928535E1,-1.077000022E0,1.042999983E0,1.720000058E-1,1.509093110E0
1.049902227E1,-1.062999964E0,1.019000053E0,3.039999902E-1,1.503577742E0
1.050875919E1,-1.057000041E0,9.980000257E-1,4.059999883E-1,1.509334002E0
1.051849589E1,-1.052000046E0,9.789999723E-1,4.690000117E-1,1.511656725E0
1.052823279E1,-1.026000023E0,9.259999990E-1,5.109999776E-1,1.473524015E0
1.053796972E1,-9.710000157E-1,8.479999900E-1,5.130000114E-1,1.387484784E0
1.054770664E1,-9.020000100E-1,7.310000062E-1,5.019999743E-1,1.264898811E0
1.055744356E1,-8.320000172E-1,6.110000014E-1,4.620000124E-1,1.130923977E0
1.056718041E1,-7.519999743E-1,4.930000007E-1,4.009999931E-1,9.845577466E-1
1.057691733E1,-7.110000253E-1,4.230000079E-1,3.059999943E-1,8.820918541E-1
1.058665426E1,-6.489999890E-1,3.819999993E-1,1.969999969E-1,7.784176154E-1
1.059639119E1,-5.130000114E-1,3.149999976E-1,2.949999869E-1,6.703872034E-1
1.060612790E1,-3.610000014E-1,1.739999950E-1,6.520000100E-1,7.653110559E-1
1.061586482E1,-2.210000008E-1,1.260000020E-1,9.139999747E-1,9.487428285E-1
1.062560176E1,-5.499999970E-2,7.999999821E-2,1.008000016E0,1.012664324E0
1.063533868E1,2.380000055E-1,-1.080000028E-1,1.149000049E0,1.178350167E0
1.064507561E1,5.049999952E-1,-2.680000067E-1,1.294000030E0,1.414667832E0
1.065481246E1,5.849999785E-1,-3.050000072E-1,1.274000049E0,1.434686761E0
1.066454938E1,6.779999733E-1,-3.129999936E-1,1.228999972E0,1.438086886E0
1.067428630E1,7.649999857E-1,-3.619999886E-1,1.218999982E0,1.483991215E0
1.068402298E1,8.640000224E-1,-3.790000081E-1,1.241000056E0,1.558915708E0
1.069375990E1,1.006000042E0,-4.040000141E-1,1.231999993E0,1.641059438E0
1.070349683E1,1.152999997E0,-4.560000002E-1,1.286000013E0,1.786376508E0
1.071323375E1,1.273000002E0,-5.180000067E-1,1.394000053E0,1.957572262E0
1.072297067E1,1.320999980E0,-5.759999752E-1,1.486999989E0,2.070745249E0
1.073270759E1,1.271999955E0,-5.740000010E-1,1.532999992E0,2.073053030E0
1.074244444E1,1.164999962E0,-6.309999824E-1,1.495000005E0,1.997601287E0
1.075218136E1,9.769999981E-1,-6.769999862E-1,1.325999975E0,1.780767787E0
1.076191828E1,6.620000005E-1,-6.880000234E-1,9.980000257E-1,1.381156068E0
1.077165521E1,3.479999900E-1,-6.790000200E-1,6.359999776E-1,9.932980377E-1
1.078139191E1,7.599999756E-2,-6.560000181E-1,2.540000081E-1,7.075507243E-1
1.079112885E1,-1.040000021E-1,-5.730000138E-1,-5.999999866E-2,5.854442895E-1
1.080086577E1,-1.899999976E-1,-4.779999852E-1,-2.879999876E-1,5.895150361E-1
1.081060269E1,-2.020000070E-1,-3.860000074E-1,-4.390000105E-1,6.184828355E-1
1.082033960E1,-1.230000034E-1,-3.319999874E-1,-5.080000162E-1,6.192067578E-1
1.083007645E1,-2.300000004E-2,-2.980000079E-1,-5.090000033E-1,5.902660486E-1
1.083981337E1,1.099999994E-1,-3.009999990E-1,-3.670000136E-1,4.872268561E-1
1.084955030E1,1.909999996E-1,-3.149999976E-1,-2.269999981E-1,4.327065952E-1
1.085928696E1,1.990000010E-1,-3.759999871E-1,-9.200000018E-2,4.352481944E-1
1.086902412E1,1.319999993E-1,-4.539999962E-1,5.999999866E-2,4.765920648E-1
1.087876079E1,8.600000292E-2,-5.929999948E-1,2.280000001E-1,6.411154298E-1
1.088849771E1,1.200000010E-2,-6.750000119E-1,3.750000000E-1,7.722655088E-1
1.089823462E1,-4.500000179E-2,-7.289999723E-1,5.099999905E-1,8.908231868E-1
1.090797144E1,-2.400000021E-2,-8.140000105E-1,6.010000110E-1,1.012113151E0
1.091770836E1,4.699999839E-2,-9.330000281E-1,6.480000019E-1,1.136926583E0
1.092744528E1,1.049999967E-1,-1.044999957E0,6.539999843E-1,1.237241241E0
1.093718221E1,1.679999977E-1,-1.180999994E0,6.169999838E-1,1.343009295E0
1.094691913E1,2.639999986E-1,-1.264999986E0,5.199999809E-1,1.392954035E0
1.095665605E1,3.479999900E-1,-1.350999951E0,4.129999876E-1,1.454948058E0
1.096639273E1,3.750000000E-1,-1.402999997E0,2.969999909E-1,1.482310017E0
1.097612965E1,3.569999933E-1,-1.457999945E0,1.449999958E-1,1.508057636E0
1.098586658E1,3.039999902E-1,-1.547000051E0,5.999999866E-2,1.577727844E0
1.099560350E1,2.290000021E-1,-1.633999944E0,-6.000000052E-3,1.649979641E0
1.100534045E1,1.120000035E-1,-1.669999957E0,2.400000021E-2,1.673923492E0
1.101507730E1,3.900000080E-2,-1.662999988E0,1.199999973E-1,1.667779949E0
1.102481424E1,-7.599999756E-2,-1.649000049E0,2.240000069E-1,1.665879096E0
1.103455116E1,-1.749999970E-1,-1.565000057E0,3.179999888E-1,1.606541058E0
1.104428807E1,-1.330000013E-1,-1.475000024E0,3.750000000E-1,1.527723493E0
1.105402477E1,1.099999994E-2,-1.402999997E0,3.129999936E-1,1.437532256E0
1.106376170E1,2.660000026E-1,-1.379999995E0,2.709999979E-1,1.431292069E0
1.107349862E1,3.849999905E-1,-1.315000057E0,1.879999936E-1,1.383038011E0
1.108323555E1,4.110000134E-1,-1.215000033E0,1.000000047E-3,1.282632875E0
1.109297247E1,4.059999883E-1,-1.159999967E0,-1.650000066E-1,1.240024562E0
1.110270940E1,3.630000055E-1,-1.110000014E0,-3.379999995E-1,1.215776721E0
1.111244628E1,2.779999971E-1,-1.070999980E0,-5.440000296E-1,1.232988641E0
1.112218320E1,9.899999946E-2,-1.026000023E0,-7.369999886E-1,1.267140888E0
1.113192012E1,-7.000000030E-2,-9.869999886E-1,-9.679999948E-1,1.384230099E0
1.114165705E1,-2.329999954E-1,-9.470000267E-1,-1.187000036E0,1.536251000E0
1.115139400E1,-3.019999862E-1,-9.179999828E-1,-1.345000029E0,1.656186293E0
1.116113092E1,-3.849999905E-1,-8.569999933E-1,-1.424000025E0,1.706004118E0
1.117086762E1,-4.920000136E-1,-7.329999804E-1,-1.519000053E0,1.756904706E0
1.118060457E1,-5.799999833E-1,-5.659999847E-1,-1.532999992E0,1.734025646E0
1.119034149E1,-5.960000157E-1,-4.339999855E-1,-1.523000002E0,1.692070038E0
1.120007842E1,-6.050000191E-1,-3.059999943E-1,-1.468000054E0,1.616998819E0
1.120981536E1,-6.140000224E-1,-1.739999950E-1,-1.348000050E0,1.491434263E0
1.121955228E1,-5.920000076E-1,-7.599999756E-2,-1.236999989E0,1.373466046E0
1.122928921E1,-6.269999743E-1,-1.000000047E-3,-1.131999969E0,1.294045555E0
1.123902606E1,-5.659999847E-1,2.300000004E-2,-1.006000042E0,1.154522008E0
1.124876298E1,-5.210000277E-1,4.600000009E-2,-9.219999909E-1,1.060019345E0
1.125849990E1,-5.479999781E-1,6.400000304E-2,-8.050000072E-1,9.759226342E-1
1.126823682E1,-5.759999752E-1,8.100000024E-2,-7.220000029E-1,9.271574708E-1
1.127797352E1,-6.019999981E-1,7.299999893E-2,-6.399999857E-1,8.816648906E-1
1.128771040E1,-6.119999886E-1,7.800000161E-2,-5.789999962E-1,8.460904100E-1
1.129744733E1,-6.570000052E-1,8.699999750E-2,-5.030000210E-1,8.320018194E-1
1.130718426E1,-6.719999909E-1,1.099999994E-1,-3.819999993E-1,7.807739667E-1
1.131692118E1,-6.650000215E-1,1.400000006E-1,-2.500000000E-1,7.241029131E-1
1.132665810E1,-6.470000148E-1,1.850000024E-1,-9.399999678E-2,6.794630376E-1
1.133639502E1,-6.570000052E-1,2.280000001E-1,7.500000298E-2,6.994698045E-1
1.134613187E1,-6.520000100E-1,2.759999931E-1,2.230000049E-1,7.422998124E-1
1.135586879E1,-7.080000043E-1,3.249999881E-1,3.750000000E-1,8.645889187E-1
1.136560571E1,-7.680000067E-1,4.000000060E-1,5.690000057E-1,1.036139480E0
1.137534263E1,-7.850000262E-1,4.329999983E-1,6.940000057E-1,1.133732794E0
1.138507956E1,-8.080000281E-1,4.740000069E-1,8.119999766E-1,1.239711262E0
1.139481649E1,-8.349999785E-1,4.819999933E-1,8.700000048E-1,1.298633500E0
1.140455341E1,-8.100000024E-1,5.279999971E-1,8.590000272E-1,1.293354185E0
1.141429033E1,-7.779999971E-1,5.469999909E-1,8.370000124E-1,1.266910418E0
1.142402726E1,-7.350000143E-1,5.879999995E-1,7.900000215E-1,1.228848670E0
1.143376394E1,-7.039999962E-1,6.280000210E-1,6.930000186E-1,1.170576374E0
1.144350089E1,-6.729999781E-1,6.570000052E-1,5.950000286E-1,1.112925429E0
1.145323781E1,-6.529999971E-1,6.740000248E-1,5.180000067E-1,1.071918391E0
1.146297474E1,-6.050000191E-1,6.819999814E-1,4.250000119E-1,1.005869777E0
1.147271166E1,-5.699999928E-1,7.030000091E-1,3.440000117E-1,9.682174408E-1
1.148244850E1,-5.009999871E-1,7.250000238E-1,2.759999931E-1,9.234728030E-1
1.149218542E1,-4.230000079E-1,7.289999723E-1,1.990000010E-1,8.660086412E-1
1.150192236E1,-3.300000131E-1,7.089999914E-1,1.480000019E-1,7.959177075E-1
1.151165936E1,-2.529999912E-1,6.959999800E-1,1.150000021E-1,7.494330978E-1
1.152139621E1,-1.729999930E-1,6.499999762E-1,1.159999967E-1,6.825576648E-1
1.153113313E1,-1.159999967E-1,6.600000262E-1,1.049999967E-1,6.782927341E-1
1.154087005E1,-5.400000140E-2,6.970000267E-1,7.999999821E-2,7.036512184E-1
1.155060697E1,-3.700000048E-2,7.480000257E-1,8.000000380E-3,7.489573009E-1
1.156034387E1,-1.999999955E-2,8.320000172E-1,-8.699999750E-2,8.367753749E-1
1.157008079E1,1.550000012E-1,8.320000172E-1,1.270000041E-1,8.557908798E-1
1.157981771E1,3.840000033E-1,6.740000248E-1,6.399999857E-1,1.005650047E0
1.158955440E1,4.690000117E-1,5.540000200E-1,8.899999857E-1,1.148467243E0
1.159929131E1,3.149999976E-1,5.329999924E-1,8.949999809E-1,1.088273383E0
1.160902823E1,2.899999917E-1,4.429999888E-1,1.067999959E0,1.192045678E0
1.161876515E1,3.750000000E-1,1.439999938E-1,1.328999996E0,1.388381067E0
1.162850207E1,4.129999876E-1,-1.019999981E-1,1.666000009E0,1.719456024E0
1.163823901E1,2.290000021E-1,-2.349999994E-1,1.626999974E0,1.659757487E0
1.164797593E1,6.300000101E-2,-3.079999983E-1,1.491000056E0,1.523782848E0
1.165771285E1,-6.300000101E-2,-3.959999979E-1,1.243000031E0,1.306075830E0
1.166744976E1,-1.070000008E-1,-4.350000024E-1,9.900000095E-1,1.086634263E0
1.167718668E1,-1.209999993E-1,-3.359999955E-1,7.739999890E-1,8.524159664E-1
1.168692353E1,-5.400000140E-2,-2.169999927E-1,5.730000138E-1,6.150886219E-1
1.169666045E1,1.070000008E-1,-1.909999996E-1,4.090000093E-1,4.639084044E-1
1.170639745E1,2.249999940E-1,-5.600000173E-2,2.660000026E-1,3.528696628E-1
1.171613430E1,4.090000093E-1,2.700000070E-2,1.949999928E-1,4.539107895E-1
1.172587122E1,6.460000277E-1,2.400000021E-2,1.449999958E-1,6.625081392E-1
1.173560814E1,8.880000114E-1,-4.500000179E-2,7.100000232E-2,8.919697421E-1
1.174534504E1,1.050999999E0,-9.700000286E-2,0.000000000E0,1.055466721E0
1.175508196E1,1.148000002E0,-1.469999999E-1,-7.500000298E-2,1.159800847E0
1.176481888E1,1.177000046E0,-1.940000057E-1,-2.049999982E-1,1.210367758E0
1.177455579E1,1.162999988E0,-2.169999927E-1,-3.109999895E-1,1.223265695E0
1.178429273E1,1.174999952E0,-2.939999998E-1,-3.429999948E-1,1.258852606E0
1.179402966E1,1.200000048E0,-3.869999945E-1,-2.829999924E-1,1.292229897E0
1.180376658E1,1.157999992E0,-4.819999933E-1,-1.739999950E-1,1.266319065E0
1.181350350E1,1.054999948E0,-5.950000286E-1,-3.999999911E-2,1.211878675E0
1.182324043E1,9.160000086E-1,-7.089999914E-1,1.350000054E-1,1.166174089E0
1.183297713E1,7.820000052E-1,-8.019999862E-1,2.759999931E-1,1.153648119E0
1.184271428E1,6.949999928E-1,-9.430000186E-1,3.160000145E-1,1.213313659E0
1.185245097E1,6.930000186E-1,-1.087000012E0,2.569999993E-1,1.314483569E0
1.186218812E1,7.120000124E-1,-1.197000027E0,1.800000072E-1,1.404333680E0
1.187192505E1,7.049999833E-1,-1.202000022E0,3.500000015E-2,1.393934729E0
1.188166172E1,7.269999981E-1,-1.139000058E0,-1.199999973E-1,1.356558192E0
1.189139864E1,7.509999871E-1,-1.057000041E0,-2.029999942E-1,1.312424880E0
1.190113556E1,7.720000148E-1,-9.570000172E-1,-2.720000148E-1,1.259292287E0
1.191087269E1,7.749999762E-1,-8.399999738E-1,-3.129999936E-1,1.184986884E0
1.192060941E1,8.029999733E-1,-7.329999804E-1,-3.370000124E-1,1.138273665E0
1.193034633E1,8.220000267E-1,-6.230000257E-1,-3.750000000E-1,1.097468941E0
1.194008325E1,8.309999704E-1,-5.410000086E-1,-4.189999998E-1,1.076477106E0
1.194982017E1,8.249999881E-1,-4.659999907E-1,-4.720000029E-1,1.058567416E0
1.195955711E1,7.699999809E-1,-4.250000119E-1,-5.659999847E-1,1.045887644E0
1.196929403E1,6.430000067E-1,-3.700000048E-1,-6.499999762E-1,9.863310707E-1
1.197903095E1,4.679999948E-1,-3.170000017E-1,-6.389999986E-1,8.531318739E-1
1.198876789E1,2.700000107E-1,-2.049999982E-1,-6.330000162E-1,7.180626892E-1
1.199850481E1,1.209999993E-1,-6.300000101E-2,-7.059999704E-1,7.190590784E-1
1.200824172E1,1.120000035E-1,8.200000226E-2,-8.199999928E-1,8.316657919E-1
1.201797865E1,1.190000027E-1,1.829999983E-1,-9.860000014E-1,1.009874251E0
1.202771557E1,1.879999936E-1,3.059999943E-1,-1.192000031E0,1.244927335E0
1.203745249E1,2.450000048E-1,4.050000012E-1,-1.437000036E0,1.512950464E0
1.204718941E1,2.150000036E-1,5.339999795E-1,-1.680999994E0,1.776834815E0
1.205692633E1,1.480000019E-1,6.460000277E-1,-1.888000011E0,2.000940799E0
1.206666325E1,9.200000018E-2,7.590000033E-1,-2.007999897E0,2.148629468E0
1.207640018E1,3.599999845E-2,8.330000043E-1,-2.036999941E0,2.201034704E0
1.208613710E1,-3.500000015E-2,8.980000019E-1,-1.953999996E0,2.150754516E0
1.209587402E1,-1.190000027E-1,9.399999976E-1,-1.802000046E0,2.035918751E0
1.210561095E1,-1.800000072E-1,8.769999743E-1,-1.516999960E0,1.761481716E0
1.211534810E1,-2.370000035E-1,7.519999743E-1,-1.172000051E0,1.412535692E0
1.212508480E1,-2.800000012E-1,6.589999795E-1,-8.100000024E-1,1.081101742E0
1.213482172E1,-3.339999914E-1,6.010000110E-1,-4.920000136E-1,8.454708870E-1
1.214455865E1,-3.079999983E-1,5.440000296E-1,-2.230000049E-1,6.637236121E-1
1.215429557E1,-2.639999986E-1,5.009999871E-1,7.000000216E-3,5.663444061E-1
1.216403251E1,-2.500000000E-1,4.850000143E-1,2.090000063E-1,5.842995948E-1
1.217376943E1,-2.689999938E-1,5.450000167E-1,3.919999897E-1,7.232219623E-1
1.218350659E1,-2.969999909E-1,6.140000224E-1,4.460000098E-1,8.149362128E-1
1.219324352E1,-3.219999969E-1,7.009999752E-1,4.950000048E-1,9.165751295E-1
1.220298046E1,-3.070000112E-1,7.910000086E-1,4.629999995E-1,9.665914442E-1
1.221271738E1,-2.430000007E-1,8.529999852E-1,3.280000091E-1,9.456436861E-1
1.222245428E1,-1.829999983E-1,8.970000148E-1,1.509999931E-1,9.278464441E-1
1.223219119E1,-1.340000033E-1,9.559999704E-1,-3.099999949E-2,9.658431262E-1
1.224192808E1,-9.799999744E-2,1.032999992E0,-1.679999977E-1,1.051150314E0
1.225166500E1,-9.300000221E-2,1.101999998E0,-2.140000015E-1,1.126431976E0
1.226140190E1,-5.499999970E-2,1.172999978E0,-2.230000049E-1,1.195275261E0
1.227113882E1,-3.900000080E-2,1.195000052E0,-1.969999969E-1,1.211757040E0
1.228087575E1,-1.000000047E-3,1.197999954E0,-9.099999815E-2,1.201451576E0
1.229061267E1,-1.600000076E-2,1.166000009E0,7.800000161E-2,1.168715543E0
1.230034967E1,-4.699999839E-2,1.083999991E0,2.489999980E-1,1.113223239E0
1.231008660E1,-5.400000140E-2,9.520000219E-1,4.070000052E-1,1.036758914E0
1.231982351E1,-3.799999878E-2,7.500000000E-1,5.780000091E-1,9.476433983E-1
1.232956035E1,-2.999999933E-2,5.289999843E-1,6.589999795E-1,8.455897092E-1
1.233929735E1,-7.599999756E-2,3.019999862E-1,7.440000176E-1,8.065457318E-1
1.234903428E1,-9.399999678E-2,8.600000292E-2,7.900000215E-1,8.002074942E-1
1.235877120E1,-1.070000008E-1,-1.150000021E-1,8.410000205E-1,8.555437073E-1
1.236850812E1,-6.199999899E-2,-2.969999909E-1,8.399999738E-1,8.931141867E-1
1.237824505E1,-3.200000152E-2,-4.359999895E-1,8.220000267E-1,9.310231119E-1
1.238798197E1,5.299999937E-2,-5.519999862E-1,8.220000267E-1,9.915629221E-1
1.239771889E1,1.319999993E-1,-5.789999962E-1,7.490000129E-1,9.558587839E-1
1.240745581E1,1.860000044E-1,-4.909999967E-1,6.280000210E-1,8.185725531E-1
1.241719296E1,2.790000141E-1,-3.930000067E-1,4.359999895E-1,6.499123048E-1
1.242692988E1,3.319999874E-1,-2.039999962E-1,2.029999942E-1,4.393734035E-1
1.243666681E1,3.079999983E-1,1.899999939E-2,-7.000000030E-2,3.164253451E-1
1.244640371E1,2.989999950E-1,2.779999971E-1,-3.659999967E-1,5.483073891E-1
1.245614064E1,5.239999890E-1,3.700000048E-1,-1.319999993E-1,6.549045670E-1
1.246587756E1,8.830000162E-1,3.569999933E-1,5.080000162E-1,1.079445247E0
1.247561455E1,1.009999990E0,5.519999862E-1,6.850000024E-1,1.339413666E0
1.248535146E1,1.125000000E0,7.009999752E-1,7.820000052E-1,1.539009413E0
1.249508839E1,1.264999986E0,5.820000172E-1,1.169999957E0,1.818749263E0
1.250482532E1,1.253000021E0,4.440000057E-1,1.488000035E0,1.995316808E0
1.251456224E1,1.106999993E0,4.140000045E-1,1.588000059E0,1.979542669E0
1.252429918E1,8.659999967E-1,4.160000086E-1,1.475999951E0,1.761132550E0
1.253403633E1,6.750000119E-1,4.189999998E-1,1.297000051E0,1.520984927E0
1.254377326E1,6.029999852E-1,3.019999862E-1,1.197999954E0,1.374778842E0
1.255351018E1,6.179999709E-1,1.260000020E-1,1.187999964E0,1.345044192E0
1.256324712E1,6.380000114E-1,-2.899999917E-2,1.156000018E0,1.320689614E0
1.257298404E1,6.110000014E-1,-2.039999962E-1,1.082000017E0,1.259230335E0
1.258272095E1,5.320000052E-1,-4.099999964E-1,1.098000050E0,1.287139507E0
1.259245795E1,3.750000000E-1,-5.939999819E-1,1.041000009E0,1.255843142E0
1.260219479E1,1.509999931E-1,-7.630000114E-1,9.470000267E-1,1.225470957E0
1.261193179E1,-6.800000370E-2,-9.449999928E-1,8.169999719E-1,1.251054731E0
1.262166872E1,-2.430000007E-1,-1.134999990E0,6.589999795E-1,1.334749022E0
1.263140564E1,-3.540000021E-1,-1.259999990E0,3.459999859E-1,1.353747380E0
1.264114256E1,-4.020000100E-1,-1.305999994E0,4.000000190E-3,1.366475757E0
1.265087972E1,-4.359999895E-1,-1.251000047E0,-2.099999934E-1,1.341341532E0
1.266061664E1,-4.670000076E-1,-1.110000014E0,-2.509999871E-1,1.230117894E0
1.267035357E1,-4.720000029E-1,-9.330000281E-1,-1.770000011E-1,1.060472562E0
1.268009047E1,-4.189999998E-1,-8.309999704E-1,-5.499999970E-2,9.322805107E-1
1.268982747E1,-1.940000057E-1,-8.830000162E-1,1.270000041E-1,9.129370361E-1
1.269956439E1,-9.999999776E-3,-9.789999723E-1,3.829999864E-1,1.051299166E0
1.270930132E1,-1.200000010E-2,-1.141000032E0,6.240000129E-1,1.300538769E0
1.271903826E1,-1.770000011E-1,-1.296000004E0,7.429999709E-1,1.504325087E0
1.272877518E1,-3.970000148E-1,-1.463000059E0,7.110000253E-1,1.674365319E0
1.273851233E1,-7.020000219E-1,-1.605000019E0,5.770000219E-1,1.844385566E0
1.274824925E1,-9.779999852E-1,-1.712000012E0,3.580000103E-1,2.003894214E0
1.275798617E1,-1.123999953E0,-1.794999957E0,9.300000221E-2,2.119917390E0
1.276772309E1,-1.144000053E0,-1.809999943E0,-1.220000014E-1,2.144695763E0
1.277746006E1,-1.034999967E0,-1.713000059E0,-3.000000119E-1,2.023757431E0
1.278719698E1,-8.939999938E-1,-1.539000034E0,-3.950000107E-1,1.823124270E0
1.279693391E1,-6.899999976E-1,-1.391000032E0,-4.420000017E-1,1.614417879E0
1.280667083E1,-4.920000136E-1,-1.246999979E0,-4.320000112E-1,1.408437777E0
1.281640799E1,-3.219999969E-1,-1.139000058E0,-3.750000000E-1,1.241623989E0
1.282614490E1,-1.759999990E-1,-1.083999991E0,-2.619999945E-1,1.129015491E0
1.283588182E1,-1.309999973E-1,-1.057000041E0,-1.059999987E-1,1.070348581E0
1.284561876E1,-1.420000046E-1,-1.014000058E0,7.000000216E-3,1.023918512E0
1.285535576E1,-1.930000037E-1,-9.660000205E-1,2.899999917E-2,9.855181586E-1
1.286509271E1,-2.700000107E-1,-9.580000043E-1,5.200000107E-2,9.966784909E-1
1.287482962E1,-4.219999909E-1,-1.003000021E0,-4.399999976E-2,1.089049601E0
1.288456656E1,-5.580000281E-1,-1.077000022E0,-1.439999938E-1,1.221486421E0
1.289430371E1,-7.599999905E-1,-1.077000022E0,-2.860000134E-1,1.348823576E0
1.290404063E1,-9.350000024E-1,-9.959999919E-1,-3.650000095E-1,1.414024751E0
1.291377756E1,-1.042000055E0,-8.610000014E-1,-4.410000145E-1,1.421817896E0
1.292351456E1,-1.080999970E0,-7.580000162E-1,-4.620000124E-1,1.398774096E0
1.293325149E1,-1.082999945E0,-6.970000267E-1,-4.490000010E-1,1.363927754E0
1.294298842E1,-1.059000015E0,-6.219999790E-1,-4.569999874E-1,1.310425120E0
1.295272557E1,-1.014999986E0,-5.199999809E-1,-4.140000045E-1,1.213268707E0
1.296246248E1,-9.720000029E-1,-4.250000119E-1,-3.860000074E-1,1.128895487E0
1.297219940E1,-9.179999828E-1,-3.339999914E-1,-3.720000088E-1,1.045305682E0
1.298193638E1,-7.870000005E-1,-2.840000093E-1,-3.860000074E-1,9.214233618E-1
1.299167331E1,-6.930000186E-1,-2.360000014E-1,-3.560000062E-1,8.140522286E-1
1.300141023E1,-6.010000110E-1,-1.509999931E-1,-2.720000148E-1,6.767466432E-1
1.301114739E1,-5.360000134E-1,-9.799999744E-2,-2.099999934E-1,5.839520623E-1
1.302088434E1,-4.090000093E-1,-6.800000370E-2,-1.270000041E-1,4.336288841E-1
1.303062123E1,-3.100000024E-1,-6.300000101E-2,6.000000052E-3,3.163937446E-1
1.304035819E1,-2.300000042E-1,-3.200000152E-2,1.180000007E-1,2.604764907E-1
1.305009518E1,-1.870000064E-1,2.400000021E-2,1.860000044E-1,2.648414697E-1
1.305983210E1,-9.200000018E-2,1.499999966E-2,2.790000141E-1,2.941598339E-1
1.306956903E1,-7.599999756E-2,3.299999982E-2,2.989999950E-1,3.102676210E-1
1.307930616E1,-3.299999982E-2,8.900000155E-2,2.540000081E-1,2.711567893E-1
1.308904317E1,-1.000000047E-3,1.159999967E-1,1.959999949E-1,2.277564428E-1
1.309878002E1,1.499999966E-2,1.230000034E-1,1.140000001E-1,1.683745849E-1
1.310851701E1,1.300000027E-2,1.469999999E-1,9.999999776E-3,1.479121360E-1
1.311825394E1,-7.000000216E-3,1.780000031E-1,-1.369999945E-1,2.247264996E-1
1.312799105E1,-5.700000003E-2,2.000000030E-1,-3.000000119E-1,3.650328867E-1
1.313772798E1,-1.420000046E-1,2.240000069E-1,-4.869999886E-1,5.545349342E-1
1.314746497E1,-1.930000037E-1,2.360000014E-1,-6.460000277E-1,7.143255825E-1
1.315720190E1,-1.940000057E-1,1.930000037E-1,-6.819999814E-1,7.348530318E-1
1.316693880E1,-2.610000074E-1,1.829999983E-1,-7.699999809E-1,8.333726501E-1
1.317667595E1,-3.689999878E-1,2.329999954E-1,-9.309999943E-1,1.028207653E0
1.318641289E1,-5.149999857E-1,2.709999979E-1,-1.080999970E0,1.227691704E0
1.319614982E1,-5.889999866E-1,2.829999924E-1,-1.133000016E0,1.307936931E0
1.320588681E1,-6.489999890E-1,3.019999862E-1,-1.138000011E0,1.344414000E0
1.321562373E1,-8.040000200E-1,3.959999979E-1,-1.024999976E0,1.361564167E0
1.322536088E1,-9.850000143E-1,5.320000052E-1,-9.589999914E-1,1.474086163E0
1.323509782E1,-9.789999723E-1,5.849999785E-1,-8.920000196E-1,1.447870835E0
1.324483474E1,-8.809999824E-1,5.329999924E-1,-7.789999843E-1,1.291158757E0
1.325457175E1,-7.960000038E-1,4.850000143E-1,-6.560000181E-1,1.139814478E0
1.326430866E1,-7.440000176E-1,4.720000029E-1,-5.490000248E-1,1.038133448E0
1.327404581E1,-6.890000105E-1,4.569999874E-1,-4.550000131E-1,9.437134177E-1
1.328378278E1,-6.359999776E-1,4.650000036E-1,-3.580000103E-1,8.653814085E-1
1.329351977E1,-5.920000076E-1,4.909999967E-1,-2.560000122E-1,8.106053368E-1
1.330325670E1,-4.620000124E-1,4.690000117E-1,-4.500000179E-2,6.598712167E-1
1.331299363E1,-2.890000045E-1,4.609999955E-1,1.379999965E-1,5.613252154E-1
1.332273079E1,-6.899999827E-2,4.979999959E-1,3.540000021E-1,6.148829134E-1
1.333246772E1,7.400000095E-2,5.870000124E-1,6.029999852E-1,8.447804430E-1
1.334220467E1,2.150000036E-1,6.650000215E-1,8.870000243E-1,1.129255982E0
1.335194166E1,3.650000095E-1,7.630000114E-1,1.036999941E0,1.338193895E0
1.336167858E1,4.550000131E-1,8.140000105E-1,1.098999977E0,1.441326465E0
1.337141573E1,5.360000134E-1,8.309999704E-1,1.098000050E0,1.477653909E0
1.338115275E1,5.479999781E-1,8.489999771E-1,8.949999809E-1,1.349862920E0
1.339088967E1,4.909999967E-1,8.420000076E-1,6.769999862E-1,1.186749338E0
1.340062660E1,2.709999979E-1,8.820000291E-1,2.840000093E-1,9.654123758E-1
1.341036377E1,1.400000043E-2,1.057000041E0,-2.930000126E-1,1.096947626E0
1.342010068E1,2.599999905E-1,9.449999928E-1,1.600000076E-2,9.802453680E-1
1.342983768E1,3.260000050E-1,7.390000224E-1,5.109999776E-1,9.557813628E-1
1.343957461E1,-3.099999949E-2,9.110000134E-1,2.329999954E-1,9.408352790E-1
1.344931178E1,-3.580000103E-1,1.080999970E0,-9.600000083E-2,1.142777731E0
1.345904870E1,-3.030000031E-1,8.830000162E-1,5.600000173E-2,9.352187074E-1
1.346878570E1,-1.019999981E-1,5.569999814E-1,5.030000210E-1,7.574047795E-1
1.347852262E1,-1.239999980E-1,3.910000026E-1,7.730000019E-1,8.750919977E-1
1.348825977E1,-2.619999945E-1,2.989999950E-1,6.740000248E-1,7.825094425E-1
1.349799669E1,-2.430000007E-1,1.169999987E-1,6.110000014E-1,6.678764869E-1
1.350773368E1,-1.239999980E-1,-1.599999964E-1,6.710000038E-1,7.008687491E-1
1.351747060E1,-9.300000221E-2,-3.300000131E-1,8.529999852E-1,9.193247434E-1
1.352720773E1,-1.270000041E-1,-3.980000019E-1,1.083999991E0,1.161718117E0
1.353694466E1,-1.319999993E-1,-4.909999967E-1,1.230999947E0,1.331865558E0
1.354668157E1,-5.400000140E-2,-6.039999723E-1,1.450000048E0,1.571697205E0
1.355641856E1,4.199999943E-2,-7.580000162E-1,1.544000030E0,1.720541809E0
1.356615572E1,1.689999998E-1,-8.960000277E-1,1.549999952E0,1.798298335E0
1.357589265E1,2.949999869E-1,-9.950000048E-1,1.465999961E0,1.796164215E0
1.358562964E1,4.189999998E-1,-1.077000022E0,1.356999993E0,1.782396990E0
1.359536657E1,5.040000081E-1,-1.129999995E0,1.162999988E0,1.698082733E0
1.360510350E1,6.100000143E-1,-1.105000019E0,9.259999990E-1,1.565439573E0
1.361484065E1,7.720000148E-1,-1.060999990E0,6.719999909E-1,1.474207919E0
1.362457765E1,9.430000186E-1,-1.003000021E0,3.910000026E-1,1.431132097E0
1.363431457E1,1.083999991E0,-9.480000138E-1,6.899999827E-2,1.441707671E0
1.364405171E1,1.164999962E0,-9.150000215E-1,-2.529999912E-1,1.502817003E0
1.365378863E1,1.190999985E0,-9.010000229E-1,-5.350000262E-1,1.586350224E0
1.366352564E1,1.143000007E0,-9.020000100E-1,-8.119999766E-1,1.667152361E0
1.367326256E1,1.092000008E0,-9.340000153E-1,-9.520000219E-1,1.723694894E0
1.368299971E1,9.649999738E-1,-9.969999790E-1,-1.014000058E0,1.718554633E0
1.369273664E1,7.710000277E-1,-1.049999952E0,-9.100000262E-1,1.589037756E0
1.370247363E1,5.189999938E-1,-1.059999943E0,-7.530000210E-1,1.399989251E0
1.371221079E1,2.280000001E-1,-1.049000025E0,-4.900000095E-1,1.180036042E0
1.372194771E1,-5.999999866E-2,-9.980000257E-1,-2.290000021E-1,1.025692474E0
1.373168470E1,-2.119999975E-1,-9.440000057E-1,4.999999888E-3,9.675251985E-1
1.374142161E1,-2.349999994E-1,-9.409999847E-1,1.169999987E-1,9.769314053E-1
1.375115877E1,-3.580000103E-1,-8.529999852E-1,2.380000055E-1,9.552052056E-1
1.376089570E1,-5.249999762E-1,-7.450000048E-1,3.740000129E-1,9.851527758E-1
1.377063269E1,-6.719999909E-1,-6.399999857E-1,4.569999874E-1,1.034423974E0
1.378036961E1,-7.160000205E-1,-5.310000181E-1,4.420000017E-1,9.949779144E-1
1.379010676E1,-6.990000010E-1,-4.140000045E-1,3.409999907E-1,8.810663986E-1
1.379984375E1,-5.450000167E-1,-3.400000036E-1,2.280000001E-1,6.816223446E-1
1.380958067E1,-4.580000043E-1,-2.450000048E-1,1.260000020E-1,5.344763856E-1
1.381931783E1,-4.309999943E-1,-1.089999974E-1,-1.300000027E-2,4.447594794E-1
1.382905478E1,-4.160000086E-1,-3.000000026E-3,-1.400000006E-1,4.389362224E-1
1.383879176E1,-3.810000122E-1,1.300000027E-2,-2.199999988E-1,4.401477124E-1
1.384852891E1,-3.350000083E-1,2.800000086E-2,-2.899999917E-1,4.439695945E-1
1.385826582E1,-3.400000036E-1,3.900000080E-2,-3.120000064E-1,4.631036671E-1
1.386800282E1,-3.580000103E-1,1.799999923E-2,-3.160000145E-1,4.778535513E-1
1.387773974E1,-3.589999974E-1,1.700000092E-2,-2.870000005E-1,4.599336892E-1
1.388747690E1,-3.210000098E-1,-3.000000026E-3,-2.590000033E-1,4.124694025E-1
1.389721383E1,-2.700000107E-1,-3.099999949E-2,-2.060000002E-1,3.410234682E-1
1.390695083E1,-2.300000042E-1,-5.900000036E-2,-1.689999998E-1,2.914481118E-1
1.391668799E1,-2.020000070E-1,-8.399999887E-2,-1.640000045E-1,2.734154424E-1
1.392642490E1,-2.070000023E-1,-1.420000046E-1,-2.310000062E-1,3.411363439E-1
1.393616190E1,-2.140000015E-1,-1.969999969E-1,-3.059999943E-1,4.221859732E-1
1.394589883E1,-1.800000072E-1,-2.409999967E-1,-4.029999971E-1,5.028816945E-1
1.395563598E1,-1.570000052E-1,-2.689999938E-1,-4.880000055E-1,5.789248688E-1
1.396537298E1,-1.570000052E-1,-3.149999976E-1,-5.920000076E-1,6.887220115E-1
1.397510990E1,-1.759999990E-1,-2.870000005E-1,-6.859999895E-1,7.641603140E-1
1.398484705E1,-1.889999956E-1,-2.249999940E-1,-7.500000000E-1,8.055097738E-1
1.399458406E1,-1.580000073E-1,-1.280000061E-1,-8.050000072E-1,8.302849001E-1
1.400432098E1,-9.499999881E-2,-2.400000021E-2,-8.059999943E-1,8.119341048E-1
1.401405790E1,-3.200000152E-2,9.399999678E-2,-7.820000052E-1,7.882791433E-1
1.402379514E1,8.000000380E-3,2.189999968E-1,-7.239999771E-1,7.564396641E-1
1.403353206E1,5.400000140E-2,3.089999855E-1,-6.560000181E-1,7.271402993E-1
1.404326922E1,5.400000140E-2,3.720000088E-1,-5.879999995E-1,6.978853818E-1
1.405300622E1,7.400000095E-2,4.289999902E-1,-5.120000243E-1,6.720573016E-1
1.406274317E1,3.999999911E-2,4.480000138E-1,-4.850000143E-1,6.614597691E-1
1.407248009E1,4.899999872E-2,4.289999902E-1,-4.239999950E-1,6.051594726E-1
1.408221726E1,-1.200000010E-2,4.090000093E-1,-3.770000041E-1,5.563757819E-1
1.409195426E1,-5.799999833E-2,4.129999876E-1,-3.680000007E-1,5.561986966E-1
1.410169118E1,-8.699999750E-2,3.970000148E-1,-3.479999900E-1,5.350532724E-1
1.411142833E1,-9.899999946E-2,3.529999852E-1,-3.310000002E-1,4.939341956E-1
1.412116533E1,-9.000000358E-2,3.190000057E-1,-2.599999905E-1,4.212612008E-1
1.413090225E1,-1.080000028E-1,3.070000112E-1,-2.119999975E-1,3.884031493E-1
1.414063940E1,-7.699999958E-2,2.879999876E-1,-1.640000045E-1,3.402484302E-1
1.415037640E1,-3.500000015E-2,2.500000000E-1,-9.499999881E-2,2.697220788E-1
1.416011331E1,1.799999923E-2,1.840000004E-1,-8.399999887E-2,2.030664914E-1
1.416985046E1,4.800000042E-2,1.539999992E-1,-6.100000069E-2,1.724557910E-1
1.417958746E1,7.400000095E-2,1.539999992E-1,-4.199999943E-2,1.759431722E-1
1.418932439E1,1.250000000E-1,9.700000286E-2,-8.000000380E-3,1.584234849E-1
1.419906154E1,1.729999930E-1,8.299999684E-2,-4.800000042E-2,1.977928135E-1
1.420879854E1,2.199999988E-1,7.299999893E-2,-3.999999911E-2,2.352211709E-1
1.421853569E1,2.249999940E-1,4.600000009E-2,-1.899999939E-2,2.304387062E-1
1.422827262E1,2.160000056E-1,3.200000152E-2,1.300000027E-2,2.187441485E-1
1.423800961E1,2.259999961E-1,3.099999949E-2,4.100000113E-2,2.317714354E-1
1.424774677E1,2.910000086E-1,0.000000000E0,1.129999980E-1,3.121698329E-1
1.425748370E1,3.740000129E-1,1.499999966E-2,1.550000012E-1,4.051246845E-1
1.426722071E1,3.630000055E-1,9.399999678E-2,8.100000024E-2,3.836222144E-1
1.427695787E1,3.729999959E-1,1.979999989E-1,4.399999976E-2,4.245809658E-1
1.428669482E1,5.289999843E-1,1.720000058E-1,3.869999945E-1,6.776385328E-1
1.429643182E1,7.149999738E-1,1.150000021E-1,7.110000253E-1,1.014874869E0
1.430616875E1,8.650000095E-1,1.599999964E-1,7.689999938E-1,1.168411745E0
1.431590590E1,9.789999723E-1,1.120000035E-1,8.489999771E-1,1.300686706E0
1.432564289E1,1.046000004E0,-1.000000047E-3,1.088999987E0,1.509979463E0
1.433538004E1,1.019999981E0,-9.399999678E-2,1.320999980E0,1.671609077E0
1.434511695E1,8.989999890E-1,-8.699999750E-2,1.399000049E0,1.665224044E0
1.435485395E1,7.360000014E-1,-7.599999756E-2,1.274000049E0,1.473278020E0
1.436459109E1,6.679999828E-1,-8.600000292E-2,1.126000047E0,1.312057957E0
1.437432802E1,6.570000052E-1,-1.459999979E-1,1.082000017E0,1.274240575E0
1.438406502E1,6.470000148E-1,-1.309999973E-1,1.008999944E0,1.205757399E0
1.439380217E1,6.169999838E-1,-1.049999967E-1,8.780000210E-1,1.078238386E0
1.440353910E1,6.240000129E-1,-1.289999932E-1,8.190000057E-1,1.037679153E0
1.441327610E1,6.499999762E-1,-2.080000043E-1,8.100000024E-1,1.059180804E0
1.442301327E1,5.400000215E-1,-2.779999971E-1,8.249999881E-1,1.024455466E0
1.443275027E1,4.040000141E-1,-3.280000091E-1,8.470000029E-1,9.940870295E-1
1.444248720E1,2.419999987E-1,-3.849999905E-1,8.769999743E-1,9.878855940E-1
1.445222436E1,9.899999946E-2,-4.300000072E-1,8.289999962E-1,9.391176709E-1
1.446196137E1,3.700000048E-2,-5.120000243E-1,7.210000157E-1,8.850729053E-1
1.447169852E1,-2.000000095E-3,-6.140000224E-1,5.720000267E-1,8.391567542E-1
1.448143544E1,-3.700000048E-2,-6.869999766E-1,4.120000005E-1,8.019239168E-1
1.449117244E1,-1.260000020E-1,-7.310000062E-1,2.779999971E-1,7.921622359E-1
1.450090960E1,-1.840000004E-1,-7.139999866E-1,1.449999958E-1,7.514499184E-1
1.451064653E1,-1.700000018E-1,-7.089999914E-1,3.999999911E-2,7.301924324E-1
1.452038354E1,-3.999999911E-2,-7.599999905E-1,-3.400000185E-2,7.618109907E-1
1.453012069E1,9.799999744E-2,-7.900000215E-1,-1.309999973E-1,8.067620670E-1
1.453985767E1,2.750000060E-1,-8.029999733E-1,-2.590000033E-1,8.874203976E-1
1.454959460E1,3.499999940E-1,-8.349999785E-1,-3.689999878E-1,9.776942012E-1
1.455933171E1,3.339999914E-1,-8.439999819E-1,-5.049999952E-1,1.038709275E0
1.456906872E1,2.460000068E-1,-8.750000000E-1,-5.970000029E-1,1.087451151E0
1.457880563E1,1.589999944E-1,-9.160000086E-1,-7.659999728E-1,1.204613204E0
1.458854278E1,4.699999839E-2,-9.520000219E-1,-8.100000024E-1,1.250844933E0
1.459827979E1,-1.400000043E-2,-9.969999790E-1,-8.719999790E-1,1.324608969E0
1.460801672E1,-4.500000179E-2,-1.042000055E0,-8.159999847E-1,1.324252654E0
1.461775387E1,-5.200000107E-2,-1.059000015E0,-7.519999743E-1,1.299880377E0
1.462749089E1,1.000000015E-1,-1.085000038E0,-6.430000067E-1,1.265177494E0
1.463722804E1,2.709999979E-1,-1.095000029E0,-4.269999862E-1,1.206148851E0
1.464696496E1,3.959999979E-1,-1.067000031E0,-2.569999993E-1,1.166770785E0
1.465670196E1,5.389999747E-1,-1.118999958E0,-2.300000004E-2,1.242260391E0
1.466643911E1,6.719999909E-1,-1.187999964E0,3.269999921E-1,1.403515905E0
1.467617611E1,6.830000281E-1,-1.223000050E0,6.320000291E-1,1.536763546E0
1.468591304E1,5.690000057E-1,-1.195999980E0,9.419999719E-1,1.625281793E0
1.469565019E1,4.269999862E-1,-1.167999983E0,1.167000055E0,1.705415515E0
1.470538719E1,3.160000145E-1,-1.166000009E0,1.256000042E0,1.742684175E0
1.471512434E1,2.310000062E-1,-1.179999948E0,1.307000041E0,1.775953261E0
1.472486132E1,1.580000073E-1,-1.205999970E0,1.284000039E0,1.768631118E0
1.473459825E1,8.500000089E-2,-1.157999992E0,1.136000037E0,1.624402988E0
1.474433540E1,1.400000043E-2,-1.110000014E0,8.909999728E-1,1.423438437E0
1.475407243E1,-2.500000037E-2,-1.036000013E0,5.690000057E-1,1.182236032E0
1.476380958E1,-4.300000146E-2,-9.250000119E-1,2.409999967E-1,9.568463934E-1
1.477354651E1,-2.899999917E-2,-8.169999719E-1,-4.000000190E-3,8.175242834E-1
1.478328351E1,-1.099999994E-2,-7.059999704E-1,-1.990000010E-1,7.335925018E-1
1.479302065E1,4.399999976E-2,-5.899999738E-1,-3.269999921E-1,6.759918371E-1
1.480275760E1,5.600000173E-2,-5.289999843E-1,-4.129999876E-1,6.734582194E-1
1.481249483E1,1.059999987E-1,-4.760000110E-1,-4.269999862E-1,6.481828433E-1
1.482223176E1,1.430000067E-1,-4.659999907E-1,-4.199999869E-1,6.434321893E-1
1.483196876E1,1.949999928E-1,-4.390000105E-1,-4.110000134E-1,6.321922314E-1
1.484170569E1,2.870000005E-1,-4.580000043E-1,-3.989999890E-1,6.718139590E-1
1.485144284E1,3.959999979E-1,-4.769999981E-1,-3.680000007E-1,7.209500655E-1
1.486117985E1,4.600000083E-1,-4.839999974E-1,-3.569999933E-1,7.571690699E-1
1.487091701E1,5.120000243E-1,-4.880000055E-1,-3.680000007E-1,7.973155152E-1
1.488065393E1,5.820000172E-1,-4.909999967E-1,-4.040000141E-1,8.619866751E-1
1.489039092E1,6.990000010E-1,-5.099999905E-1,-4.460000098E-1,9.734562139E-1
1.490012806E1,8.080000281E-1,-5.049999952E-1,-4.860000014E-1,1.069619111E0
1.490986507E1,8.799999952E-1,-5.090000033E-1,-5.199999809E-1,1.141876077E0
1.491960222E1,8.759999871E-1,-5.059999824E-1,-5.500000119E-1,1.151482511E0
1.492933915E1,8.309999704E-1,-5.260000229E-1,-5.830000043E-1,1.143296103E0
1.493907616E1,7.540000081E-1,-5.329999924E-1,-5.749999881E-1,1.087763757E0
1.494881332E1,6.129999757E-1,-5.130000114E-1,-4.720000029E-1,9.282898172E-1
1.495855034E1,4.550000131E-1,-5.120000243E-1,-3.420000076E-1,7.655932615E-1
1.496828749E1,3.630000055E-1,-5.130000114E-1,-1.770000011E-1,6.528912743E-1
1.497802444E1,2.179999948E-1,-5.070000291E-1,8.999999613E-3,5.519547329E-1
1.498776145E1,1.199999973E-1,-4.799999893E-1,1.669999957E-1,5.221963114E-1
1.499749860E1,2.500000037E-2,-4.499999881E-1,3.129999936E-1,5.487203161E-1
1.500723558E1,-4.600000009E-2,-4.350000024E-1,4.259999990E-1,6.105874231E-1
1.501697274E1,-6.700000167E-2,-3.810000122E-1,5.159999728E-1,6.449077310E-1
1.502670968E1,-8.699999750E-2,-3.170000017E-1,5.619999766E-1,6.510775487E-1
1.503644670E1,-8.100000024E-2,-2.469999939E-1,6.169999838E-1,6.695214537E-1
1.504618385E1,-3.999999911E-2,-1.800000072E-1,6.069999933E-1,6.343886777E-1
1.505592080E1,1.799999923E-2,-1.379999965E-1,6.090000272E-1,6.246991533E-1
1.506565804E1,7.299999893E-2,-1.010000035E-1,6.389999986E-1,6.510384003E-1
1.507539496E1,9.700000286E-2,-7.299999893E-2,6.399999857E-1,6.514122981E-1
1.508513196E1,1.059999987E-1,-2.300000004E-2,5.830000043E-1,5.930042198E-1
1.509486888E1,1.199999973E-1,1.600000076E-2,5.339999795E-1,5.475508903E-1
1.510460611E1,1.720000058E-1,4.899999872E-2,4.709999859E-1,5.038114614E-1
1.511434303E1,2.119999975E-1,8.799999952E-2,3.510000110E-1,4.193912333E-1
1.512408020E1,1.620000005E-1,1.870000064E-1,2.000000030E-1,3.181399122E-1
1.513381720E1,1.879999936E-1,3.009999990E-1,1.140000001E-1,3.727479001E-1
1.514355436E1,3.959999979E-1,2.849999964E-1,3.589999974E-1,6.057408640E-1
1.515329129E1,6.800000072E-1,2.520000041E-1,5.360000134E-1,9.017760399E-1
1.516302828E1,8.519999981E-1,3.269999921E-1,7.149999738E-1,1.159335135E0
1.517276543E1,1.134999990E0,2.060000002E-1,1.131000042E0,1.615494374E0
1.518250239E1,1.315999985E0,-3.099999949E-2,1.546000004E0,2.030500670E0
1.519223954E1,1.203999996E0,-2.739999890E-1,1.792000055E0,2.176225214E0
1.520197648E1,9.229999781E-1,-4.210000038E-1,1.771000028E0,2.040982866E0
1.521171347E1,7.020000219E-1,-6.349999905E-1,1.557999969E0,1.823017532E0
1.522145060E1,5.320000052E-1,-8.690000176E-1,1.235000014E0,1.601065293E0
1.523118760E1,3.219999969E-1,-1.052000046E0,7.990000248E-1,1.359701855E0
1.524092475E1,1.309999973E-1,-1.149000049E0,4.860000014E-1,1.254415447E0
1.525066167E1,7.599999756E-2,-1.115000010E0,-2.500000037E-2,1.117866728E0
1.526039866E1,-3.000000026E-3,-1.095999956E0,-2.249999940E-1,1.118860984E0
1.527013581E1,7.299999893E-2,-1.011999965E0,-3.849999905E-1,1.085217914E0
1.527987274E1,1.940000057E-1,-1.042999983E0,-2.660000026E-1,1.093728014E0
1.528960997E1,3.770000041E-1,-1.019000053E0,-4.800000042E-2,1.087563383E0
1.529934696E1,5.690000057E-1,-1.016999960E0,2.689999938E-1,1.195997877E0
1.530908388E1,8.029999733E-1,-1.062999964E0,6.110000014E-1,1.465639411E0
1.531882102E1,1.016999960E0,-1.077000022E0,7.210000157E-1,1.647440132E0
1.532855803E1,1.212000012E0,-1.133999944E0,7.400000095E-1,1.817278162E0
1.533829516E1,1.360999942E0,-1.212000012E0,6.420000196E-1,1.932208295E0
1.534803209E1,1.394000053E0,-1.337000012E0,4.189999998E-1,1.976452929E0
1.535776909E1,1.330999970E0,-1.386000037E0,1.949999928E-1,1.931471465E0
1.536750624E1,1.215000033E0,-1.434000015E0,-7.800000161E-2,1.881134000E0
1.537724324E1,1.161999941E0,-1.486999989E0,-2.989999950E-1,1.910710293E0
1.538698015E1,1.192999959E0,-1.578999996E0,-5.350000262E-1,2.050052418E0
1.539671738E1,1.254999995E0,-1.634999990E0,-6.119999886E-1,2.150068358E0
1.540645430E1,1.338999987E0,-1.656999946E0,-6.729999781E-1,2.234166233E0
1.541619145E1,1.445999980E0,-1.710000038E0,-6.190000176E-1,2.323397748E0
1.542592846E1,1.518000007E0,-1.758999944E0,-5.529999733E-1,2.388349596E0
1.543566562E1,1.570000052E0,-1.781999946E0,-3.959999979E-1,2.407745827E0
1.544540257E1,1.621999979E0,-1.754999995E0,-2.020000070E-1,2.398272903E0
1.545513957E1,1.674000025E0,-1.733000040E0,1.799999923E-2,2.409541289E0
1.546487673E1,1.707999945E0,-1.720999956E0,2.220000029E-1,2.434828261E0
1.547461373E1,1.692999959E0,-1.675999999E0,3.479999900E-1,2.407556614E0
1.548435090E1,1.656000018E0,-1.610000014E0,4.110000134E-1,2.345923510E0
1.549408783E1,1.590000033E0,-1.544999957E0,3.970000148E-1,2.252273071E0
1.550382484E1,1.503000021E0,-1.460000038E0,3.289999962E-1,2.121049309E0
1.551356200E1,1.381999969E0,-1.366000056E0,1.930000037E-1,1.952723501E0
1.552329899E1,1.264999986E0,-1.246999979E0,1.999999955E-2,1.776410401E0
1.553303614E1,1.131999969E0,-1.093000054E0,-1.140000001E-1,1.577678373E0
1.554277316E1,1.000000000E0,-9.169999957E-1,-2.240000069E-1,1.375159989E0
1.555251008E1,9.070000052E-1,-7.850000262E-1,-2.910000086E-1,1.234323724E0
1.556224724E1,8.339999914E-1,-6.470000148E-1,-2.240000069E-1,1.079046342E0
1.557198424E1,6.740000248E-1,-4.709999859E-1,-1.909999996E-1,8.441552109E-1
1.558172114E1,5.479999781E-1,-3.199999928E-1,-8.900000155E-2,6.408002588E-1
1.559145829E1,4.480000138E-1,-1.979999989E-1,2.800000086E-2,4.906037220E-1
1.560119554E1,3.389999866E-1,-1.220000014E-1,1.010000035E-1,3.741737457E-1
1.561093246E1,2.060000002E-1,-2.500000037E-2,1.700000018E-1,2.682554766E-1
1.562066945E1,7.199999690E-2,5.700000003E-2,2.220000029E-1,2.402436281E-1
1.563040660E1,-1.799999923E-2,1.089999974E-1,2.610000074E-1,2.834184243E-1
1.564014354E1,-4.600000009E-2,1.289999932E-1,2.840000093E-1,3.152982771E-1
1.564988054E1,-5.200000107E-2,1.120000035E-1,2.890000045E-1,3.142753625E-1
1.565961769E1,2.400000021E-2,9.499999881E-2,2.759999931E-1,2.928771004E-1
1.566935470E1,1.570000052E-1,6.300000101E-2,2.689999938E-1,3.177719283E-1
1.567909185E1,2.630000114E-1,1.600000076E-2,2.090000063E-1,3.363123677E-1
1.568882886E1,2.759999931E-1,-5.200000107E-2,2.119999975E-1,3.518863385E-1
1.569856576E1,2.730000019E-1,-6.899999827E-2,1.819999963E-1,3.352819701E-1
1.570830292E1,1.299999952E-1,-9.999999776E-3,1.430000067E-1,1.935174428E-1
1.571803990E1,9.000000358E-2,5.000000075E-2,4.500000179E-2,1.123610292E-1
1.572777706E1,3.400000185E-2,1.080000028E-1,-3.700000048E-2,1.191175922E-1
1.573751406E1,-4.100000113E-2,2.329999954E-1,-1.299999952E-1,2.699444326E-1
1.574725119E1,-1.260000020E-1,3.779999912E-1,-2.630000114E-1,4.774191029E-1
1.575698812E1,-2.160000056E-1,5.040000081E-1,-3.560000062E-1,6.537644951E-1
1.576672512E1,-2.599999905E-1,6.069999933E-1,-4.239999950E-1,7.847451705E-1
1.577646227E1,-3.179999888E-1,7.739999890E-1,-4.950000048E-1,9.722268154E-1
1.578619927E1,-3.880000114E-1,8.849999905E-1,-5.299999714E-1,1.102120212E0
1.579593619E1,-4.350000024E-1,9.509999752E-1,-4.920000136E-1,1.155720541E0
