"Time (s)","Linear Acceleration x (m/s^2)","Linear Acceleration y (m/s^2)","Linear Acceleration z (m/s^2)","Absolute acceleration (m/s^2)"
4.823958600E-2,-2.000000095E-3,-5.799999833E-2,-1.089999974E-1,1.234868383E-1
5.797720200E-2,1.200000010E-2,1.099999994E-1,2.259999961E-1,2.516346520E-1
6.771499000E-2,7.000000216E-3,9.600000083E-2,2.049999982E-1,2.264729552E-1
7.745260500E-2,-1.070000008E-1,-1.400000043E-2,-8.200000226E-2,1.355322860E-1
8.719047800E-2,-2.400000021E-2,-4.699999839E-2,-4.769999981E-1,4.799104063E-1
9.692825000E-2,3.799999878E-2,-2.999999933E-2,-8.539999723E-1,8.553712367E-1
1.066658600E-1,3.999999911E-2,1.720000058E-1,-1.156000018E0,1.169410126E0
1.164036270E-1,3.089999855E-1,4.219999909E-1,-1.297999978E0,1.399417352E0
1.261412590E-1,6.259999871E-1,6.409999728E-1,-1.391999960E0,1.655421649E0
1.358790260E-1,1.261999965E0,1.065000057E0,-1.412999988E0,2.173347188E0
1.456168620E-1,1.542000055E0,1.307000041E0,-1.243999958E0,2.373509885E0
1.553544220E-1,1.394999981E0,1.590999961E0,-1.600999951E0,2.653395309E0
1.650922660E-1,1.072000027E0,1.649999976E0,-1.245000005E0,2.328456354E0
1.748298970E-1,5.979999900E-1,1.651000023E0,-9.520000219E-1,1.997425619E0
1.845676640E-1,6.069999933E-1,1.707999945E0,9.240000248E-1,2.034573382E0
1.943053210E-1,-1.641000032E0,4.760000229E0,4.685999870E0,6.878159497E0
2.040431650E-1,-3.361999989E0,5.013000011E0,7.070000172E-1,6.077257775E0
2.137809160E-1,-1.412999988E0,4.888000011E0,-1.297999978E0,5.251087223E0
2.235185320E-1,-9.530000091E-1,4.381000042E0,-2.798000097E0,5.284900655E0
2.332563140E-1,-1.429999948E0,2.871999979E0,-1.945999980E0,3.752359211E0
2.429939310E-1,1.070000008E-1,3.078999996E0,-2.793999910E0,4.159101523E0
2.527316940E-1,8.640000224E-1,1.396000028E0,-4.751999855E0,5.027605269E0
2.624693110E-1,1.593999982E0,2.509999871E-1,-5.026000023E0,5.278684795E0
2.722070820E-1,2.706000090E0,-2.489999980E-1,-4.073999882E0,4.897133092E0
2.819447000E-1,2.707000017E0,-5.339999795E-1,-3.638000011E0,4.565966399E0
2.916825830E-1,2.174000025E0,-7.149999738E-1,-3.311000109E0,4.024950036E0
3.014203540E-1,1.574000001E0,-1.246000051E0,-2.640000105E0,3.316563385E0
3.111579790E-1,-6.750000119E-1,-1.888000011E0,1.133999944E0,2.303502753E0
3.208957460E-1,1.853000045E0,1.514000058E0,-6.990000010E-1,2.492871104E0
3.306333530E-1,2.671000004E0,2.003999949E0,-2.558000088E0,4.206378640E0
3.403711970E-1,1.450999975E0,6.389999986E-1,-1.671000004E0,2.303467590E0
3.501087140E-1,2.046000004E0,6.100000069E-2,-1.470999956E0,2.520650290E0
3.598464660E-1,3.240000010E0,-1.258000016E0,-2.555000067E0,4.313721067E0
3.695840890E-1,5.543000221E0,-4.251999855E0,-3.690999985E0,7.901128724E0
3.793219330E-1,5.956999779E0,-4.906000137E0,-2.349999905E0,8.067043031E0
3.890596990E-1,2.361999989E0,-1.628999949E0,-6.429999828E0,7.041135034E0
3.987973140E-1,-5.493999958E0,1.623999953E0,-4.085000038E0,7.036237396E0
4.085351150E-1,-9.567999840E0,4.013000011E0,-1.853000045E0,1.053965840E1
4.182727320E-1,-1.016899967E1,5.006999969E0,1.057999969E0,1.138411028E1
4.280104990E-1,-9.144000053E0,5.183000088E0,4.169000149E0,1.130737764E1
4.377481170E-1,-7.270999908E0,5.407000065E0,6.340000153E0,1.105887387E1
4.474859470E-1,-5.625999928E0,5.249000072E0,8.211000443E0,1.125275101E1
4.572237180E-1,-5.460000038E0,4.243999958E0,8.086999893E0,1.064061574E1
4.669613010E-1,-5.537000179E0,2.989000082E0,7.160999775E0,9.532702149E0
4.766990680E-1,-5.486000061E0,1.687000036E0,5.960000038E0,8.274283428E0
4.864367030E-1,-3.582000017E0,1.210999966E0,4.893000126E0,6.183744438E0
4.961744700E-1,-3.766000032E0,2.989999950E-1,5.692999840E0,6.832452299E0
5.059121070E-1,-3.453999996E0,-7.749999762E-1,5.604000092E0,6.628390300E0
5.156498940E-1,-3.391000032E0,1.879999936E-1,5.192999840E0,6.204955484E0
5.253875120E-1,-3.164000034E0,1.761000037E0,3.286000013E0,4.889766194E0
5.351253070E-1,-3.911000013E0,2.783999920E0,1.705000043E0,5.094467765E0
5.448631530E-1,-2.369999886E0,4.730000019E0,3.790000081E-1,5.304096591E0
5.546007850E-1,6.499999762E-2,6.122000217E0,-7.810000181E-1,6.171958578E0
5.643385530E-1,1.427000046E0,5.794000149E0,-6.690000296E-1,6.004525618E0
5.740761600E-1,1.766000032E0,5.046999931E0,1.609999985E-1,5.349475247E0
5.838139270E-1,-7.580000162E-1,4.866000175E0,1.266999960E0,5.085057584E0
5.935515550E-1,-2.887000084E0,4.771999836E0,2.226000071E0,6.005150142E0
6.032893220E-1,-5.006000042E0,3.789000034E0,2.279999971E0,6.679442907E0
6.130271730E-1,-4.994999886E0,2.352999926E0,2.996999979E0,6.282407292E0
6.227647140E-1,-3.154999971E0,1.733000040E0,1.940000057E0,4.089121444E0
6.325023620E-1,-1.792000055E0,2.111000061E0,9.139999747E-1,2.915987210E0
6.422402060E-1,-8.059999943E-1,2.308000088E0,-8.159999847E-1,2.577276929E0
6.519779750E-1,2.730000019E-1,1.544000030E0,-1.911999941E0,2.472692635E0
6.617155160E-1,8.880000114E-1,8.500000238E-1,-1.712000012E0,2.107602454E0
6.714531410E-1,9.670000076E-1,2.060000002E-1,-5.350000262E-1,1.124166377E0
6.811909810E-1,8.420000076E-1,-1.442999959E0,4.749999940E-1,1.736904686E0
6.909287160E-1,1.959999949E-1,-3.463999987E0,-8.439999819E-1,3.570720918E0
7.006663330E-1,-1.664999962E0,-4.566999912E0,-4.724999905E0,6.779036596E0
7.104041150E-1,-3.256999969E0,-5.960999966E0,-7.501999855E0,1.012035430E1
7.201417330E-1,-5.672999859E0,-6.473000050E0,-1.502000046E1,1.731135670E1
7.298795040E-1,-1.218900013E1,-2.915999889E0,-1.398299980E1,1.877762133E1
7.396171210E-1,-9.451000214E0,-1.486999989E0,-8.736000061E0,1.295570419E1
7.493549280E-1,-1.381000042E0,-4.640999794E0,-5.030000210E0,6.981901053E0
7.590927450E-1,3.765000105E0,-6.223999977E0,2.540000081E-1,7.278593100E0
7.688303620E-1,4.791999817E0,-7.011000156E0,4.326000214E0,9.530564689E0
7.785681110E-1,2.724999905E0,-6.964000225E0,7.147999763E0,1.034489363E1
7.883057280E-1,-5.669999719E-1,-6.315999985E0,8.444000244E0,1.056004190E1
7.980434750E-1,-2.581000090E0,-5.392000198E0,8.694000244E0,1.055087048E1
8.077810930E-1,-2.946000099E0,-4.800000191E0,8.062000275E0,9.834366621E0
8.175188460E-1,-2.479000092E0,-4.696000099E0,7.758999825E0,9.402124051E0
8.272564530E-1,-1.720000029E0,-4.522999763E0,8.338999748E0,9.641309235E0
8.369942310E-1,-6.219999790E-1,-4.482999802E0,9.128000259E0,1.018845228E1
8.467320770E-1,4.500000179E-2,-4.252999783E0,9.154000282E0,1.009384730E1
8.564695930E-1,-2.080000043E-1,-3.714999914E0,7.998000145E0,8.821139081E0
8.662072090E-1,-6.529999971E-1,-3.033999920E0,5.980000019E0,6.737355916E0
8.759449660E-1,-5.619999766E-1,-2.243000031E0,3.823999882E0,4.468765848E0
8.856828120E-1,8.000000380E-3,-1.425999999E0,1.848999977E0,2.335024821E0
8.954204150E-1,6.019999981E-1,-8.119999766E-1,3.959999979E-1,1.085616856E0
9.051579690E-1,7.779999971E-1,-3.470000029E-1,-6.090000272E-1,1.047174308E0
9.148958130E-1,5.199999809E-1,-8.699999750E-2,-1.292000055E0,1.395432952E0
9.246335870E-1,6.599999964E-2,-1.899999939E-2,-1.792999983E0,1.794314894E0
9.343712050E-1,-3.000000119E-1,-1.659999937E-1,-1.970999956E0,2.000599118E0
9.441089720E-1,-5.440000296E-1,-4.399999976E-1,-1.582999945E0,1.730729573E0
9.538465930E-1,-9.679999948E-1,-4.769999981E-1,-1.307000041E0,1.694934245E0
9.635843610E-1,-1.274999976E0,-3.479999900E-1,-1.348999977E0,1.888525846E0
9.733219640E-1,-1.088999987E0,-2.599999905E-1,-1.455000043E0,1.835904706E0
9.830597310E-1,-4.429999888E-1,-2.870000005E-1,-1.062000036E0,1.185943535E0
9.927973440E-1,2.370000035E-1,-1.379999965E-1,-2.419999987E-1,3.657553828E-1
1.002535126E0,6.679999828E-1,-1.080000028E-1,1.150000021E-1,6.863767028E-1
1.012272733E0,7.789999843E-1,-4.099999964E-1,9.099999815E-2,8.849982894E-1
1.022010501E0,3.319999874E-1,-5.360000134E-1,-2.240000069E-1,6.691008960E-1
1.031748142E0,4.500000179E-2,-4.720000029E-1,-7.360000014E-1,8.755027156E-1
1.041485909E0,2.339999974E-1,-3.359999955E-1,-1.453999996E0,1.510552212E0
1.051223761E0,3.939999938E-1,-8.299999684E-2,-2.365000010E0,2.399031063E0
1.060961378E0,2.809999883E-1,2.739999890E-1,-3.355000019E0,3.377878345E0
1.070699145E0,-4.000000190E-3,7.400000095E-1,-4.260000229E0,4.323796707E0
1.080436763E0,-4.659999907E-1,1.277999997E0,-5.094999790E0,5.273467820E0
1.090174530E0,-1.166000009E0,1.950999975E0,-5.637000084E0,6.077970621E0
1.099912147E0,-2.094000101E0,2.575000048E0,-5.671999931E0,6.571685088E0
1.109649919E0,-3.052000046E0,3.029999971E0,-5.375999928E0,6.884546414E0
1.119387536E0,-3.805000067E0,3.157999992E0,-4.256999969E0,6.524801775E0
1.129125299E0,-4.068999767E0,3.267999887E0,-2.250000000E0,5.683228165E0
1.138862917E0,-4.077000141E0,3.111000061E0,-2.399999946E-1,5.133989825E0
1.148600688E0,-4.385000229E0,2.766999960E0,1.139000058E0,5.308656790E0
1.158338324E0,-4.789000034E0,2.430999994E0,1.822000027E0,5.671328451E0
1.168076064E0,-5.146999836E0,2.335000038E0,2.124000072E0,6.037814903E0
1.177813681E0,-5.296999931E0,2.247999907E0,2.104000092E0,6.126869367E0
1.187551422E0,-5.302000046E0,2.118000031E0,1.853000045E0,6.002560935E0
1.197289040E0,-5.566999912E0,2.430999994E0,1.615000010E0,6.285656213E0
1.207026812E0,-5.348000050E0,2.632999897E0,1.524000049E0,6.152752972E0
1.216764429E0,-5.217000008E0,2.571000099E0,1.281000018E0,5.955509352E0
1.226502211E0,-5.532000065E0,2.542999983E0,1.228000045E0,6.211107610E0
1.236240058E0,-5.652999878E0,2.269999981E0,1.736999989E0,6.334546274E0
1.245977708E0,-5.777999878E0,1.827000022E0,2.519999981E0,6.563048954E0
1.255715475E0,-5.736000061E0,1.195000052E0,3.417000055E0,6.782743634E0
1.265453113E0,-5.688000202E0,5.780000091E-1,4.171999931E0,7.077641820E0
1.275190846E0,-5.702000141E0,2.160000056E-1,4.537000179E0,7.289981635E0
1.284928468E0,-5.519000053E0,3.000000026E-3,4.107999802E0,6.880046000E0
1.294666236E0,-4.946000099E0,-1.909999996E-1,3.168999910E0,5.877240714E0
1.304403853E0,-4.043000221E0,-2.669999897E-1,2.042999983E0,4.537729467E0
1.314141586E0,-3.404000044E0,-2.419999987E-1,9.089999795E-1,3.531580561E0
1.323879204E0,-2.701999903E0,-2.680000067E-1,2.829999924E-1,2.729966387E0
1.333616985E0,-1.968999982E0,-3.089999855E-1,-8.999999613E-3,1.993118893E0
1.343354602E0,-1.381000042E0,-4.970000088E-1,-2.700000107E-1,1.492337137E0
1.353092375E0,-1.031999946E0,-7.630000114E-1,-5.860000253E-1,1.410882325E0
1.362829992E0,-6.919999719E-1,-9.810000062E-1,-1.004999995E0,1.565646820E0
1.372567749E0,-3.919999897E-1,-1.185999990E0,-1.384999990E0,1.865069688E0
1.382305367E0,-1.299999952E-1,-1.348999977E0,-1.769000053E0,2.228466317E0
1.392043125E0,3.200000152E-2,-1.496999979E0,-2.142999887E0,2.614284119E0
1.401780742E0,1.040000021E-1,-1.659000039E0,-2.434999943E0,2.948274385E0
1.411518500E0,7.900000364E-2,-1.666000009E0,-2.505000114E0,3.009455533E0
1.421256117E0,-1.430000067E-1,-1.735999942E0,-2.707000017E0,3.219005109E0
1.430993899E0,-4.650000036E-1,-2.059000015E0,-3.111999989E0,3.760352376E0
1.440731517E0,-7.770000100E-1,-2.447999954E0,-3.375000000E0,4.241115159E0
1.450469269E0,-1.039999962E0,-2.769000053E0,-3.339999914E0,4.461452750E0
1.460206886E0,-1.134999990E0,-3.098999977E0,-3.049999952E0,4.493831945E0
1.469944683E0,-1.032999992E0,-3.405999899E0,-3.055000067E0,4.690516997E0
1.479682310E0,-8.529999852E-1,-3.552000046E0,-3.342999935E0,4.951763511E0
1.489420043E0,-1.027999997E0,-3.358000040E0,-3.630000114E0,5.050727581E0
1.499157661E0,-6.399999857E-1,-3.362999916E0,-3.971999884E0,5.243677287E0
1.508895423E0,-5.559999943E-1,-3.365000010E0,-4.421000004E0,5.583690723E0
1.518633040E0,-8.500000238E-1,-3.029000044E0,-4.375999928E0,5.389500596E0
1.528370803E0,-7.020000219E-1,-3.075000048E0,-4.008999825E0,5.101030182E0
1.538108420E0,-1.041000009E0,-3.104000092E0,-3.086999893E0,4.499785098E0
1.547846168E0,-1.258000016E0,-3.009999990E0,-1.881999969E0,3.766243204E0
1.557583786E0,-1.141000032E0,-3.017999887E0,-1.080000028E-1,3.228291870E0
1.567321582E0,-1.330999970E0,-2.578000069E0,2.257999897E0,3.676439692E0
1.577059199E0,-2.118000031E0,-1.838999987E0,4.672999859E0,5.450208506E0
1.586796947E0,-2.867000103E0,-1.490000010E0,6.181000233E0,6.974564753E0
1.596534564E0,-3.174999952E0,-1.424000025E0,6.973000050E0,7.793018058E0
1.606272346E0,-3.140000105E0,-1.396000028E0,6.885000229E0,7.694910324E0
1.616009964E0,-2.973000050E0,-1.174999952E0,5.611999989E0,6.458629735E0
1.625747726E0,-2.931999922E0,-4.169999957E-1,3.979000092E0,4.960136517E0
1.635485562E0,-2.984999895E0,3.289999962E-1,2.197000027E0,3.720923876E0
1.645223103E0,-3.539000034E0,1.419000030E0,9.079999924E-1,3.919508427E0
1.654960957E0,-2.723000050E0,1.429000020E0,-1.700000018E-1,3.079881544E0
1.664698497E0,-3.048000097E0,1.894000053E0,-7.639999986E-1,3.668955818E0
1.674436336E0,-2.917000055E0,1.899000049E0,-4.920000136E-1,3.515274459E0
1.684173954E0,-2.427999973E0,1.503999949E0,2.899999917E-2,2.856228407E0
1.693911716E0,-1.924999952E0,1.088999987E0,9.399999976E-1,2.403153300E0
1.703649333E0,-1.485000014E0,7.279999852E-1,1.981999993E0,2.581381993E0
1.713386867E0,-1.192999959E0,4.370000064E-1,3.056999922E0,3.310508485E0
1.723124711E0,-1.019999981E0,1.129999980E-1,3.796000004E0,3.932274786E0
1.732862495E0,-1.000000000E0,-7.100000232E-2,4.090000153E0,4.211073764E0
1.742600113E0,-9.570000172E-1,-1.209999993E-1,3.835999966E0,3.955424853E0
1.752337884E0,-8.659999967E-1,-4.999999888E-3,3.135999918E0,3.253379240E0
1.762075501E0,-9.169999957E-1,1.500000060E-1,2.246000051E0,2.430618280E0
1.771813269E0,-1.161999941E0,2.360000014E-1,1.430999994E0,1.858413530E0
1.781550886E0,-1.521000028E0,1.120000035E-1,9.430000186E-1,1.793107392E0
1.791288454E0,-1.745000005E0,-1.790000051E-1,5.929999948E-1,1.851678971E0
1.801026211E0,-1.934999943E0,-4.029999971E-1,1.959999949E-1,1.986214937E0
1.810763824E0,-1.973999977E0,-5.669999719E-1,-2.630000114E-1,2.070587811E0
1.820501592E0,-2.048000097E0,-6.790000200E-1,-8.240000010E-1,2.309614995E0
1.830239209E0,-2.114000082E0,-7.310000062E-1,-1.445000052E0,2.662964984E0
1.839976976E0,-2.194999933E0,-5.849999785E-1,-1.871000051E0,2.942939156E0
1.849714584E0,-2.286999941E0,-4.530000091E-1,-2.145999908E0,3.168736869E0
1.859452351E0,-2.296999931E0,-3.779999912E-1,-2.292000055E0,3.266857348E0
1.869190197E0,-2.269000053E0,-2.919999957E-1,-2.265000105E0,3.219293512E0
1.878927738E0,-2.198999882E0,-2.919999957E-1,-2.312000036E0,3.204092484E0
1.888665582E0,-2.130000114E0,-3.059999943E-1,-2.388999939E0,3.215253830E0
1.898403122E0,-2.188999891E0,-3.810000122E-1,-2.369999886E0,3.248658337E0
1.908140961E0,-2.259000063E0,-4.769999981E-1,-2.061000109E0,3.094888000E0
1.917878502E0,-2.255000114E0,-4.480000138E-1,-1.534000039E0,2.763853406E0
1.927616365E0,-2.177000046E0,-3.510000110E-1,-1.172999978E0,2.497690765E0
1.937353982E0,-2.114000082E0,-2.599999905E-1,-9.750000238E-1,2.342481886E0
1.947091545E0,-2.019000053E0,-1.140000001E-1,-7.910000086E-1,2.171413878E0
1.956829404E0,-1.958999991E0,2.090000063E-1,-7.070000172E-1,2.093134251E0
1.966567177E0,-2.019999981E0,4.920000136E-1,-1.164999962E0,2.383209778E0
1.976304795E0,-2.013000011E0,6.349999905E-1,-1.819000006E0,2.786423345E0
1.986042352E0,-2.230999947E0,8.930000067E-1,-2.217000008E0,3.269541070E0
1.995780119E0,-2.434000015E0,1.011000037E0,-2.075999975E0,3.355033986E0
2.005517728E0,-2.523999929E0,9.089999795E-1,-1.271999955E0,2.968979706E0
2.015255499E0,-2.575999975E0,6.809999943E-1,-4.500000179E-2,2.664875581E0
2.024993117E0,-2.581000090E0,3.459999859E-1,1.437000036E0,2.974264036E0
2.034730914E0,-2.667000055E0,2.199999988E-2,2.944999933E0,3.973210025E0
2.044468531E0,-2.749000072E0,-3.650000095E-1,4.234000206E0,5.061322372E0
2.054206308E0,-2.832000017E0,-7.839999795E-1,5.092999935E0,5.879925884E0
2.063943926E0,-2.709000111E0,-1.169999957E0,5.493000031E0,6.235433492E0
2.073681707E0,-2.263999939E0,-1.276000023E0,5.650000095E0,6.219033113E0
2.083419325E0,-1.896999955E0,-9.929999709E-1,5.150000095E0,5.577379201E0
2.093157111E0,-1.853999972E0,-6.449999809E-1,3.891000032E0,4.358121399E0
2.102894728E0,-1.810999990E0,-3.759999871E-1,2.517999887E0,3.124327189E0
2.112632505E0,-1.631999969E0,-2.090000063E-1,1.467000008E0,2.204357939E0
2.122370352E0,-1.332000017E0,-8.100000024E-2,7.549999952E-1,1.533235154E0
2.132107901E0,-1.139000058E0,-1.000000047E-3,1.529999971E-1,1.149230669E0
2.141845517E0,-1.131999969E0,4.999999888E-3,-5.120000243E-1,1.242414164E0
2.151583299E0,-1.253999949E0,-4.699999839E-2,-1.332999945E0,1.830741304E0
2.161320916E0,-1.368999958E0,-2.450000048E-1,-2.184000015E0,2.589216475E0
2.171058697E0,-1.373999953E0,-4.600000083E-1,-2.987999916E0,3.320785958E0
2.180796315E0,-1.327000022E0,-7.189999819E-1,-3.776000023E0,4.066456222E0
2.190534087E0,-1.309999943E0,-8.489999771E-1,-4.387000084E0,4.656465456E0
2.200271705E0,-1.261000037E0,-8.190000057E-1,-4.723000050E0,4.956572563E0
2.210009453E0,-1.088999987E0,-9.509999752E-1,-4.936999798E0,5.144345335E0
2.219747070E0,-6.740000248E-1,-1.266000032E0,-5.114999771E0,5.312273974E0
2.229484813E0,-2.919999957E-1,-1.680999994E0,-5.263000011E0,5.532648019E0
2.239222431E0,2.750000060E-1,-2.204999924E0,-5.335999966E0,5.780185577E0
2.248960198E0,8.389999866E-1,-2.594000101E0,-5.295000076E0,5.955651376E0
2.258697815E0,1.358999968E0,-2.890000105E0,-5.124000072E0,6.037744468E0
2.268435568E0,1.633999944E0,-3.151999950E0,-4.605000019E0,5.814729975E0
2.278173195E0,1.516000032E0,-3.401999950E0,-3.838000059E0,5.348093512E0
2.287910938E0,1.184000015E0,-3.877000093E0,-3.062999964E0,5.080841912E0
2.297648556E0,7.269999981E-1,-4.644000053E0,-2.329999924E0,5.246347790E0
2.307386304E0,-1.250000000E-1,-5.297999859E0,-1.853000045E0,5.614092685E0
2.317123921E0,-9.900000095E-1,-5.886000156E0,-1.764000058E0,6.223888982E0
2.326861669E0,-1.220000029E0,-6.342000008E0,-2.046000004E0,6.774620298E0
2.336599209E0,-5.899999738E-1,-6.348000050E0,-3.190999985E0,7.129353793E0
2.346336838E0,6.850000024E-1,-5.665999889E0,-4.579999924E0,7.317730458E0
2.356074607E0,1.976999998E0,-4.517000198E0,-5.379000187E0,7.296948869E0
2.365812195E0,2.630000114E0,-3.292999983E0,-5.809999943E0,7.177523864E0
2.375550039E0,3.180999994E0,-2.345999956E0,-5.475999832E0,6.753447336E0
2.385287556E0,3.638000011E0,-2.137000084E0,-3.530999899E0,5.501797318E0
2.395025400E0,4.223999977E0,-2.930999994E0,2.600000054E-2,5.141362930E0
2.404763169E0,4.734000206E0,-3.842000008E0,4.708000183E0,7.703050547E0
2.414500714E0,5.296999931E0,-4.505000114E0,9.593000412E0,1.184815982E1
2.424238558E0,5.517000198E0,-4.501999855E0,1.302000046E1,1.484000356E1
2.433976119E0,5.223999977E0,-3.733000040E0,1.427000046E1,1.564795124E1
2.443713714E0,4.585000038E0,-2.437999964E0,1.358699989E1,1.454553661E1
2.453451472E0,3.664000034E0,-1.011000037E0,1.180300045E1,1.239991278E1
2.463189090E0,2.836999893E0,1.570000052E-1,9.866999626E0,1.026795496E1
2.472926866E0,2.276000023E0,1.093000054E0,8.512000084E0,8.878568052E0
2.482664483E0,1.932000041E0,1.728999972E0,7.493000031E0,7.928878516E0
2.492402294E0,1.774000049E0,2.075999975E0,6.381999969E0,6.941669517E0
2.502139911E0,1.587000012E0,2.322999954E0,5.126999855E0,5.848164271E0
2.511877688E0,1.327000022E0,2.490000010E0,3.556999922E0,4.540184748E0
2.521615306E0,1.062000036E0,2.549999952E0,1.741000056E0,3.265183767E0
2.531353073E0,9.539999962E-1,2.523999929E0,-7.299999893E-2,2.699262980E0
2.541090690E0,9.229999781E-1,2.525000095E0,-1.588999987E0,3.122895355E0
2.550828471E0,8.529999852E-1,2.515000105E0,-2.658999920E0,3.758073320E0
2.560566088E0,7.340000272E-1,2.335000038E0,-3.612999916E0,4.364029057E0
2.570303855E0,5.180000067E-1,2.059000015E0,-4.622000217E0,5.086323926E0
2.580041473E0,1.010000035E-1,1.838999987E0,-5.592999935E0,5.888443786E0
2.589779002E0,-3.759999871E-1,1.667999983E0,-6.500000000E0,6.721130852E0
2.599516764E0,-9.890000224E-1,1.827999949E0,-7.409999847E0,7.695960148E0
2.609254382E0,-1.572000027E0,2.016000032E0,-8.255000114E0,8.641786106E0
2.618992115E0,-2.118000031E0,2.244999886E0,-8.944999695E0,9.462503271E0
2.628729732E0,-2.713999987E0,2.523999929E0,-9.541999817E0,1.023650976E1
2.638467577E0,-2.868999958E0,2.654999971E0,-9.989000320E0,1.072661703E1
2.648205103E0,-2.400000095E0,2.680999994E0,-9.979000092E0,1.060793120E1
2.657942870E0,-1.503999949E0,2.778000116E0,-8.850000381E0,9.396904131E0
2.667680488E0,-1.422000051E0,2.676000118E0,-6.684999943E0,7.339774180E0
2.677418255E0,-2.282000065E0,1.726999998E0,-5.098999977E0,5.847209083E0
2.687155862E0,-3.323999882E0,2.720000148E-1,-4.335999966E0,5.470270096E0
2.696893630E0,-4.586999893E0,-7.429999709E-1,-3.640000105E0,5.902729686E0
2.706631233E0,-5.256000042E0,-1.325999975E0,-2.904000044E0,6.149555157E0
2.716369000E0,-4.631000042E0,-1.437999964E0,-7.500000000E-1,4.906781561E0
2.726106536E0,-1.707000017E0,-1.416000009E0,3.417999983E0,4.074509660E0
2.735844380E0,2.526999950E0,-1.052999973E0,1.003999996E1,1.040654299E1
2.745581997E0,6.283999920E0,-4.129999876E-1,1.681500053E1,1.795559709E1
2.755319760E0,8.293999672E0,-4.490000010E-1,2.048200035E1,2.210213496E1
2.765057377E0,9.451000214E0,-1.784000039E0,2.032500076E1,2.248576699E1
2.774795110E0,9.878000259E0,-3.197999954E0,1.887700081E1,2.154398413E1
2.784532651E0,9.937000275E0,-4.211999893E0,1.760300064E1,2.064825777E1
2.794270250E0,9.380000114E0,-4.381999969E0,1.678599930E1,1.972196994E1
2.804008019E0,8.579999924E0,-4.103000164E0,1.652199936E1,1.906377381E1
2.813745632E0,7.262000084E0,-3.476000071E0,1.571399975E1,1.765641554E1
2.823483399E0,6.058000088E0,-2.831000090E0,1.337800026E1,1.495609633E1
2.833221002E0,4.432000160E0,-1.815000057E0,9.906000137E0,1.100298547E1
2.842958770E0,2.549000025E0,-1.031000018E0,5.554999828E0,6.198256630E0
2.852696391E0,1.013000011E0,-5.749999881E-1,1.398000002E0,1.819669754E0
2.862434158E0,9.700000286E-2,-2.230000049E-1,-1.703999996E0,1.721265229E0
2.872171787E0,-2.000000030E-1,-1.669999957E-1,-3.904000044E0,3.912685183E0
2.881909554E0,-1.449999958E-1,-1.920000017E-1,-5.473000050E0,5.478286095E0
2.891647175E0,3.799999878E-2,-2.360000014E-1,-6.763999939E0,6.768222453E0
2.901384943E0,1.360000074E-1,-2.179999948E-1,-7.763999939E0,7.768250450E0
2.911122556E0,2.119999975E-1,-2.709999979E-1,-8.399000168E0,8.406044778E0
2.920860109E0,1.430000067E-1,-4.659999907E-1,-8.473999977E0,8.488008047E0
2.930597905E0,-1.679999977E-1,-8.249999881E-1,-8.258000374E0,8.300808343E0
2.940335751E0,-1.146999955E0,-1.055999994E0,-7.894000053E0,8.046488783E0
2.950073353E0,-8.280000091E-1,-1.865000010E0,-7.758999825E0,8.022835367E0
2.959810892E0,-1.636000037E0,-2.141999960E0,-7.495999813E0,7.965844158E0
2.969548674E0,-1.860999942E0,-2.438999891E0,-6.934000015E0,7.582374131E0
2.979286292E0,-1.843999982E0,-3.023000002E0,-6.545000076E0,7.441497896E0
2.989024044E0,-1.682000041E0,-3.516999960E0,-6.342000008E0,7.444419182E0
2.998761661E0,-1.271000028E0,-3.917000055E0,-6.169000149E0,7.417202528E0
3.008499443E0,-8.569999933E-1,-4.170000076E0,-6.189000130E0,7.511795540E0
3.018237060E0,-3.980000019E-1,-4.239999771E0,-6.127999783E0,7.462464968E0
3.027974827E0,3.619999886E-1,-4.295000076E0,-5.714000225E0,7.157364614E0
3.037712445E0,1.480999947E0,-4.632999897E0,-4.818999767E0,6.846956086E0
3.047450198E0,2.276999950E0,-4.552000046E0,-3.971999884E0,6.456176598E0
3.057187815E0,2.831000090E0,-4.109000206E0,-2.821000099E0,5.732057725E0
3.066925597E0,3.671999931E0,-4.326000214E0,-1.014999986E0,5.764380827E0
3.076663156E0,4.427999973E0,-4.859000206E0,1.134999990E0,6.671228653E0
3.086400774E0,4.743999958E0,-5.131000042E0,3.392999887E0,7.768213776E0
3.096138544E0,4.715000153E0,-5.315999985E0,5.518000126E0,8.996633129E0
3.105876395E0,4.607999802E0,-5.394999981E0,6.894999981E0,9.893468133E0
3.115613935E0,4.385000229E0,-5.493999958E0,7.564000130E0,1.032600409E1
3.125351565E0,4.099999905E0,-5.336999893E0,7.730999947E0,1.024997206E1
3.135089333E0,3.907000065E0,-4.761000156E0,7.565000057E0,9.755049865E0
3.144826949E0,3.970000029E0,-4.045000076E0,7.356999874E0,9.287000215E0
3.154564717E0,3.907999992E0,-3.303999901E0,6.376999855E0,8.176491083E0
3.164302334E0,3.569000006E0,-2.523000002E0,5.000999928E0,6.641783670E0
3.174040121E0,3.188999891E0,-1.866999984E0,3.407999992E0,5.026914878E0
3.183777739E0,2.717000008E0,-1.381999969E0,1.690000057E0,3.485414344E0
3.193515267E0,2.295000076E0,-1.121999979E0,-4.100000113E-2,2.554914931E0
3.203253111E0,1.710999966E0,-9.729999900E-1,-1.559000015E0,2.510922323E0
3.212990871E0,1.116999984E0,-8.280000091E-1,-2.670000076E0,3.010344397E0
3.222728488E0,5.210000277E-1,-6.999999881E-1,-3.111000061E0,3.231062115E0
3.232466018E0,1.480000019E-1,-6.280000210E-1,-3.677000046E0,3.733177917E0
3.242203794E0,-3.999999911E-2,-5.709999800E-1,-4.481999874E0,4.518402798E0
3.251941411E0,-4.050000012E-1,-4.230000079E-1,-5.453000069E0,5.484356275E0
3.261679188E0,-7.089999914E-1,-3.190000057E-1,-6.590000153E0,6.635702224E0
3.271416792E0,-1.159000039E0,-2.349999994E-1,-7.868999958E0,7.957365546E0
3.281154559E0,-1.776999950E0,-9.899999946E-2,-8.772000313E0,8.950727306E0
3.290892166E0,-2.049000025E0,-1.280000061E-1,-9.104999542E0,9.333584615E0
3.300629934E0,-2.211999893E0,-1.150000021E-1,-9.295000076E0,9.555270532E0
3.310367570E0,-2.509999990E0,-2.460000068E-1,-9.843999863E0,1.016193629E1
3.320105337E0,-3.119999886E0,-2.000000095E-3,-1.029699993E1,1.075930346E1
3.329842950E0,-3.967999935E0,8.370000124E-1,-1.111900043E1,1.183544520E1
3.339580717E0,-4.237999916E0,1.740000010E0,-1.202200031E1,1.286533073E1
3.349318244E0,-4.065000057E0,2.750000000E0,-1.231700039E1,1.325877913E1
3.359055857E0,-3.484999895E0,3.108000040E0,-1.186999989E1,1.275546102E1
3.368793630E0,-3.423000097E0,2.602999926E0,-1.081700039E1,1.164044826E1
3.378531248E0,-2.319999933E0,4.017000198E0,-8.423999786E0,9.616780266E0
3.388269001E0,-3.124000072E0,4.831999779E0,-4.973999977E0,7.605805289E0
3.398006613E0,-2.845000029E0,3.263999939E0,1.400000006E-1,4.332126587E0
3.407744381E0,-1.950000048E0,1.291000009E0,6.171000004E0,6.599274373E0
3.417481998E0,-5.499999970E-2,-5.740000010E-1,1.166899967E1,1.168323818E1
3.427219755E0,3.526000023E0,-2.025000095E0,1.754500008E1,1.801000636E1
3.436957359E0,6.910999775E0,-3.165999889E0,2.614900017E1,2.723152003E1
3.446695126E0,9.440999985E0,-4.636000156E0,2.569099998E1,2.776062785E1
3.456432738E0,1.184200001E1,-5.686999798E0,2.235199928E1,2.592656558E1
3.466170277E0,1.378699970E1,-5.598000050E0,2.125300026E1,2.594434400E1
3.475908054E0,1.460999966E1,-5.297999859E0,1.769499969E1,2.355066680E1
3.485645695E0,1.449600029E1,-5.263000011E0,1.366499996E1,2.060498526E1
3.495383463E0,1.266800022E1,-4.449999809E0,9.956999779E0,1.671593768E1
3.505121051E0,1.019099998E1,-3.720000029E0,6.877999783E0,1.284530116E1
3.514858818E0,8.015999794E0,-3.216000080E0,4.737999916E0,9.851271614E0
3.524596436E0,5.422999859E0,-2.336999893E0,3.296999931E0,6.763187452E0
3.534334188E0,3.233999968E0,-1.590999961E0,2.262000084E0,4.255194595E0
3.544071805E0,1.891999960E0,-1.217000008E0,1.559999943E0,2.737581540E0
3.553809588E0,1.121999979E0,-1.070000052E0,7.469999790E-1,1.720986064E0
3.563547128E0,9.490000010E-1,-1.065999985E0,-2.600000054E-2,1.427456819E0
3.573284957E0,1.429999948E0,-9.139999747E-1,-1.146000028E0,2.047831015E0
3.583022498E0,1.332999945E0,-1.235999942E0,-1.296000004E0,2.232532356E0
3.592760108E0,1.649000049E0,-1.623999953E0,-1.773000002E0,2.915494129E0
3.602497875E0,2.825999975E0,-1.657999992E0,-2.451999903E0,4.092376248E0
3.612235498E0,3.526000023E0,-1.764999986E0,-2.881000042E0,4.883447794E0
3.621973265E0,4.096000195E0,-2.200999975E0,-3.460999966E0,5.796562710E0
3.631710878E0,5.045000076E0,-3.022000074E0,-3.852999926E0,7.030655634E0
3.641448645E0,5.960000038E0,-3.644000053E0,-3.677000046E0,7.894343936E0
3.651186258E0,6.499000072E0,-3.937999964E0,-3.066999912E0,8.194591760E0
3.660924025E0,6.645999908E0,-4.385000229E0,-2.743999958E0,8.421821511E0
3.670661657E0,6.619999886E0,-4.815000057E0,-3.165999889E0,8.776797784E0
3.680399195E0,6.610000134E0,-5.019999981E0,-3.562000036E0,9.032183890E0
3.690136963E0,6.684999943E0,-5.203000069E0,-3.477999926E0,9.157342269E0
3.699874580E0,6.666999817E0,-5.342000008E0,-2.826999903E0,8.998765420E0
3.709612336E0,6.433000088E0,-5.472000122E0,-1.952999949E0,8.668361106E0
3.719349988E0,6.540999889E0,-5.764999866E0,-1.429999948E0,8.835428844E0
3.729087779E0,6.614999771E0,-5.941999912E0,-2.055000067E0,9.126259376E0
3.738825396E0,6.099999905E0,-5.691999912E0,-3.507999897E0,9.050686444E0
3.748563183E0,5.216000080E0,-5.268000126E0,-4.175000191E0,8.508178933E0
3.758300723E0,4.232999802E0,-4.656000137E0,-3.990999937E0,7.451490126E0
3.768038346E0,3.052000046E0,-3.969000101E0,-3.365000010E0,6.032486315E0
3.777776116E0,2.091000080E0,-3.641000032E0,-2.242000103E0,4.759803256E0
3.787513728E0,1.463000059E0,-3.394000053E0,-9.729999900E-1,3.821823454E0
3.797251495E0,9.879999757E-1,-2.842000008E0,6.309999824E-1,3.074291621E0
3.806989141E0,9.350000024E-1,-2.023999929E0,2.989000082E0,3.728930438E0
3.816726908E0,1.440999985E0,-1.317999959E0,5.708000183E0,6.032816170E0
3.826464525E0,2.239000082E0,-9.950000048E-1,7.563000202E0,7.949976002E0
3.836202293E0,3.010999918E0,-9.890000224E-1,7.770999908E0,8.392418074E0
3.845939896E0,3.734999895E0,-1.116000056E0,6.653999805E0,7.711769820E0
3.855677435E0,4.231999874E0,-1.136999965E0,4.821000099E0,6.514954628E0
3.865415216E0,4.581999779E0,-1.067999959E0,2.391000032E0,5.277520918E0
3.875152833E0,5.254000187E0,-1.101999998E0,6.499999762E-1,5.407533812E0
3.884890601E0,5.964000225E0,-1.001999974E0,-2.290000021E-1,6.051920657E0
3.894628209E0,5.966000080E0,-9.120000005E-1,-1.245000005E0,6.162379895E0
3.904365976E0,5.462999821E0,-9.959999919E-1,-2.256999969E0,5.994199854E0
3.914103627E0,4.796999931E0,-1.118999958E0,-3.029999971E0,5.783102029E0
3.923841165E0,4.230999947E0,-1.366999984E0,-3.217999935E0,5.488676807E0
3.933579004E0,3.596999884E0,-1.613000035E0,-2.973999977E0,4.938102180E0
3.943316774E0,3.098000050E0,-1.855999947E0,-2.927999973E0,4.649249827E0
3.953054300E0,2.796000004E0,-1.947000027E0,-3.125999928E0,4.623883722E0
3.962791915E0,2.604000092E0,-1.960000038E0,-3.403000116E0,4.711987523E0
3.972529683E0,2.414000034E0,-1.863000035E0,-3.890000105E0,4.942698262E0
3.982267300E0,2.319999933E0,-1.728000045E0,-4.618999958E0,5.450095821E0
3.992005067E0,2.177999973E0,-1.524000049E0,-4.993000031E0,5.656528028E0
4.001742685E0,2.025000095E0,-1.567000031E0,-4.948999882E0,5.572137320E0
4.011480423E0,6.029999852E-1,-2.094000101E0,-4.763000011E0,5.237806269E0
4.021218040E0,7.749999762E-1,-7.990000248E-1,-4.263999939E0,4.406894766E0
4.030955584E0,2.119999886E0,8.299999684E-2,-2.253999949E0,3.095448963E0
4.040693336E0,2.562000036E0,-7.609999776E-1,-5.879999995E-1,2.736550594E0
4.050430950E0,3.894000053E0,-1.669000030E0,1.410000026E-1,4.238947808E0
4.060168717E0,4.086999893E0,-1.294000030E0,1.050999999E0,4.413910421E0
4.069906334E0,4.328000069E0,-6.729999781E-1,1.652999997E0,4.681551298E0
4.079644101E0,5.027999878E0,-1.067000031E0,1.901999950E0,5.480590812E0
4.089381719E0,5.276000023E0,-1.138000011E0,1.726999998E0,5.666899440E0
4.099119276E0,5.584000111E0,-6.119999886E-1,1.475000024E0,5.807859011E0
4.108857044E0,6.048999786E0,-5.669999719E-1,1.784000039E0,6.332025231E0
4.118594914E0,6.160999775E0,-6.790000200E-1,2.505000114E0,6.685355999E0
4.128332531E0,5.999000072E0,-9.419999719E-1,3.773999929E0,7.149716168E0
4.138070070E0,5.730000019E0,-1.133999944E0,5.190999985E0,7.814431325E0
4.147807856E0,5.526999950E0,-1.332000017E0,5.985000134E0,8.254827624E0
4.157545473E0,4.814000130E0,-1.184999943E0,6.070000172E0,7.837328894E0
4.167283226E0,4.139999866E0,-1.294000030E0,6.190000057E0,7.558447968E0
4.177020843E0,3.595999956E0,-8.970000148E-1,4.342999935E0,5.709419686E0
4.186758620E0,3.329999924E0,2.569999993E-1,8.000000119E-1,3.434377456E0
4.196496219E0,5.341000080E0,9.739999771E-1,-1.972000003E0,5.776135544E0
4.206233761E0,5.907999992E0,6.430000067E-1,-2.532999992E0,6.460185901E0
4.215971528E0,5.682000160E0,8.740000129E-1,-1.991999984E0,6.084165167E0
4.225709151E0,5.566999912E0,6.679999828E-1,-8.500000238E-1,5.670997447E0
4.235446918E0,5.797999859E0,3.289999962E-1,9.300000221E-2,5.808071312E0
4.245184530E0,5.090000153E0,5.759999752E-1,5.109999776E-1,5.147912053E0
4.254922298E0,6.089000225E0,1.651999950E0,-1.901000023E0,6.589296523E0
4.264659915E0,7.599999905E0,2.494999886E0,-7.459999919E-1,8.033774889E0
4.274397469E0,8.737000465E0,3.130000114E0,-4.810000062E-1,9.293193146E0
4.284135236E0,9.161999702E0,3.079999924E0,-1.203999996E0,9.740546908E0
4.293872809E0,1.043299961E1,3.029999971E0,-3.661999941E0,1.146466852E1
4.303610577E0,1.143900013E1,2.526999950E0,-5.348000050E0,1.287779318E1
4.313348194E0,1.173499966E1,1.504999995E0,-5.947000027E0,1.324167857E1
4.323085961E0,1.110200024E1,-1.689999998E-1,-4.863999844E0,1.212194146E1
4.332823579E0,9.972999573E0,-1.952000022E0,-4.026999950E0,1.093104538E1
4.342561117E0,8.423000336E0,-3.891999960E0,-2.290999889E0,9.557367778E0
4.352298884E0,6.614999771E0,-6.146999836E0,7.829999924E-1,9.064045341E0
4.362036488E0,4.528999805E0,-8.291999817E0,4.484000206E0,1.045826745E1
4.371774235E0,2.171000004E0,-9.892999649E0,8.126999855E0,1.298586962E1
4.381511852E0,-2.820000052E-1,-1.087300014E1,1.235999966E1,1.646424148E1
4.391249620E0,-2.187999964E0,-1.136900043E1,1.630299950E1,1.999573223E1
4.400987237E0,-2.263000011E0,-1.173900032E1,1.822500038E1,2.179623675E1
4.410724990E0,-2.345999956E0,-1.152400017E1,1.819099998E1,2.166145831E1
4.420462613E0,-1.978000045E0,-1.037899971E1,1.632099915E1,1.944250838E1
4.430200151E0,-1.491999984E0,-9.678999901E0,1.398600006E1,1.707387773E1
4.439937918E0,-1.184000015E0,-8.331000328E0,1.042000008E1,1.339342466E1
4.449675536E0,-5.519999862E-1,-6.340000153E0,7.876999855E0,1.012657063E1
4.459413279E0,-1.909999996E-1,-4.554999828E0,5.593999863E0,7.216463046E0
4.469150897E0,-7.590000033E-1,-2.829999924E0,4.133999825E0,5.067044022E0
4.478888435E0,-1.281999946E0,-1.955000043E0,3.319999933E0,4.060535505E0
4.488626279E0,-1.460000038E0,-1.330000043E0,3.092999935E0,3.669761412E0
4.498364048E0,-8.809999824E-1,-1.182000041E0,3.020999908E0,3.361506435E0
4.508101589E0,2.700000070E-2,-1.271000028E0,2.210999966E0,2.550429556E0
4.517839213E0,9.039999843E-1,-1.105000019E0,5.080000162E-1,1.515356404E0
4.527576981E0,1.680999994E0,-6.409999728E-1,-1.664000034E0,2.450619934E0
4.537314598E0,2.411999941E0,-2.230000049E-1,-3.673000097E0,4.399818454E0
4.547052351E0,3.092000008E0,1.500000060E-1,-5.427000046E0,6.247823105E0
4.556789969E0,3.709000111E0,2.479999959E-1,-6.892000198E0,7.830571662E0
4.566527521E0,3.969000101E0,4.800000042E-2,-7.672999859E0,8.638876816E0
4.576265288E0,3.388999939E0,-4.199999943E-2,-7.123000145E0,7.888232733E0
4.586002925E0,2.480000019E0,-4.909999967E-1,-5.558000088E0,6.105968070E0
4.595740692E0,1.259999990E0,-9.309999943E-1,-3.621999979E0,3.946295074E0
4.605478276E0,5.450000167E-1,-1.146000028E0,-1.432999969E0,1.914113370E0
4.615216029E0,6.779999733E-1,-1.029999971E0,-3.599999845E-2,1.233644967E0
4.624953646E0,1.294999957E0,-6.570000052E-1,-4.999999888E-3,1.452135977E0
4.634691428E0,2.059999943E0,-3.540000021E-1,-1.449000001E0,2.543327892E0
4.644428988E0,2.371999979E0,-3.939999938E-1,-3.990000010E0,4.658510489E0
4.654166832E0,1.950999975E0,-4.350000024E-1,-6.629000187E0,6.923818988E0
4.663904373E0,1.389999986E0,-8.169999719E-1,-7.927000046E0,8.089308910E0
4.673641949E0,1.419000030E0,-1.151999950E0,-7.678999901E0,7.893522943E0
4.683379716E0,1.669999957E0,-1.207999945E0,-6.638999939E0,6.951581397E0
4.693117315E0,2.316999912E0,-1.276000023E0,-5.011000156E0,5.666285134E0
4.702855092E0,3.257999897E0,-1.263000011E0,-2.842000008E0,4.504075532E0
4.712592632E0,4.316999912E0,-1.297999978E0,-1.138000011E0,4.649337180E0
4.722330246E0,5.061999798E0,-1.281999946E0,-2.800000012E-1,5.229317911E0
4.732068014E0,5.223000050E0,-1.440000057E0,-6.050000191E-1,5.451546084E0
4.741805631E0,4.644999981E0,-1.804999948E0,-1.934000015E0,5.345503315E0
4.751543409E0,3.595999956E0,-2.230000019E0,-3.555999994E0,5.527137752E0
4.761281026E0,2.171999931E0,-2.502000093E0,-4.671999931E0,5.727579901E0
4.771018793E0,8.619999886E-1,-2.723999977E0,-4.807000160E0,5.592000572E0
4.780756324E0,-2.020000070E-1,-2.546000004E0,-4.144999981E0,4.868669722E0
4.790493919E0,-1.123999953E0,-2.344000101E0,-3.042000055E0,4.001434331E0
4.800231688E0,-1.873999953E0,-2.032999992E0,-1.371000051E0,3.086196030E0
4.809969311E0,-2.232000113E0,-1.481999993E0,5.879999995E-1,2.742971469E0
4.819707078E0,-2.213999987E0,-9.210000038E-1,2.303999901E0,3.325425159E0
4.829444720E0,-1.144999981E0,-9.689999819E-1,3.338000059E0,3.659539632E0
4.839182239E0,-6.679999828E-1,-4.300000072E-1,2.858000040E0,2.966359421E0
4.848920083E0,1.300000027E-2,3.050000072E-1,1.523000002E0,1.553294245E0
4.858657657E0,4.530000091E-1,9.300000072E-1,1.360000074E-1,1.043362364E0
4.868395443E0,1.036999941E0,1.575000048E0,-7.329999804E-1,2.023186348E0
4.878133060E0,1.781000018E0,1.944000006E0,-5.040000081E-1,2.684234173E0
4.887870785E0,2.509999990E0,1.976999998E0,4.990000129E-1,3.233825901E0
4.897608325E0,2.983999968E0,1.764000058E0,1.422000051E0,3.746736734E0
4.907346164E0,2.957999945E0,1.384999990E0,1.735000014E0,3.698406913E0
4.917083801E0,2.367000103E0,1.049999952E0,1.623000026E0,3.056029854E0
4.926821373E0,1.544000030E0,8.090000153E-1,1.690000057E0,2.427862704E0
4.936559140E0,7.300000191E-1,6.259999871E-1,2.085999966E0,2.296991917E0
4.946296758E0,-4.999999888E-3,3.600000143E-1,2.678999901E0,2.703084438E0
4.956034525E0,-6.280000210E-1,2.400000021E-2,3.234999895E0,3.295479381E0
4.965772128E0,-1.126000047E0,-2.189999968E-1,3.450000048E0,3.635703155E0
4.975509910E0,-1.498999953E0,-1.930000037E-1,3.151999950E0,3.495619194E0
4.985247450E0,-1.728999972E0,1.499999966E-2,2.367000103E0,2.931271975E0
4.994985059E0,-1.939000010E0,4.629999995E-1,1.378000021E0,2.423421981E0
5.004722828E0,-1.957999945E0,9.010000229E-1,5.569999814E-1,2.226165718E0
5.014460445E0,-1.817999959E0,1.289000034E0,1.209999993E-1,2.231879463E0
5.024198213E0,-1.580000043E0,1.450000048E0,-1.650000066E-1,2.150842922E0
5.033935835E0,-1.358000040E0,1.396000028E0,-4.920000136E-1,2.008741944E0
5.043673373E0,-1.218000054E0,1.240000010E0,-9.570000172E-1,1.984180735E0
5.053411155E0,-1.011999965E0,1.026999950E0,-1.307000041E0,1.946052911E0
5.063148772E0,-7.239999771E-1,8.119999766E-1,-1.432999969E0,1.799168930E0
5.072886553E0,-5.009999871E-1,8.489999771E-1,-1.381999969E0,1.697564686E0
5.082624171E0,-1.539999992E-1,3.869999945E-1,-1.417999983E0,1.477906948E0
5.092361919E0,6.150000095E-1,-3.899999857E-1,-2.114000082E0,2.235916221E0
5.102099460E0,4.810000062E-1,1.600000076E-2,-2.302000046E0,2.351769805E0
5.111837083E0,6.579999924E-1,-1.529999971E-1,-2.486999989E0,2.577118921E0
5.121574929E0,1.000000000E0,-4.720000029E-1,-2.653000116E0,2.874229222E0
5.131312460E0,8.619999886E-1,-6.869999766E-1,-2.815000057E0,3.023117310E0
5.141050227E0,5.469999909E-1,-6.710000038E-1,-2.296000004E0,2.453786057E0
5.150787844E0,2.199999988E-1,-8.619999886E-1,-1.376999974E0,1.639381868E0
5.160525645E0,8.900000155E-2,-1.001999974E0,-3.950000107E-1,1.080717335E0
5.170263282E0,1.909999996E-1,-1.126000047E0,5.770000219E-1,1.279564821E0
5.180000820E0,5.820000172E-1,-1.177999973E0,1.452000022E0,1.958242074E0
5.189738588E0,1.003000021E0,-1.011999965E0,1.845999956E0,2.331923843E0
5.199476195E0,1.253999949E0,-7.139999866E-1,1.692999959E0,2.224536067E0
5.209213962E0,1.319000006E0,-2.860000134E-1,1.411999941E0,1.953279513E0
5.218951580E0,1.463000059E0,-1.049999967E-1,1.305999994E0,1.963932320E0
5.228689352E0,1.475999951E0,-3.700000048E-2,1.782999992E0,2.314958710E0
5.238426863E0,1.980999947E0,-2.360000014E-1,2.571000099E0,3.254243122E0
5.248164496E0,2.474999905E0,-6.050000191E-1,2.779999971E0,3.770948076E0
5.257902265E0,2.487999916E0,-5.720000267E-1,2.572000027E0,3.623880758E0
5.267639878E0,2.418999910E0,-7.009999752E-1,2.242000103E0,3.371872772E0
5.277377664E0,2.145999908E0,-6.330000162E-1,1.883000016E0,2.924327904E0
5.287115261E0,1.861999989E0,-5.580000281E-1,1.473000050E0,2.438880304E0
5.296852800E0,2.039999962E0,-6.209999919E-1,7.900000215E-1,2.274058238E0
5.306590548E0,2.420000076E0,-7.599999905E-1,-3.490000069E-1,2.560429917E0
5.316328165E0,2.361000061E0,-5.749999881E-1,-1.539000034E0,2.876363569E0
5.326065923E0,2.109999895E0,-6.200000048E-1,-2.719000101E0,3.497064642E0
5.335803540E0,1.955999970E0,-8.600000143E-1,-3.483000040E0,4.086174885E0
5.345541083E0,1.741000056E0,-9.990000129E-1,-3.776999950E0,4.277243370E0
5.355278832E0,1.273000002E0,-1.032999992E0,-3.601000071E0,3.956617179E0
5.365016449E0,1.042999983E0,-1.069000006E0,-2.888000011E0,3.251331119E0
5.374754211E0,1.034999967E0,-1.077999949E0,-1.912999988E0,2.427525031E0
5.384491829E0,9.610000253E-1,-1.042000055E0,-1.047999978E0,1.762835533E0
5.394229567E0,6.389999986E-1,-8.939999938E-1,-5.559999943E-1,1.231540897E0
5.403967184E0,3.310000002E-1,-6.800000072E-1,-4.359999895E-1,8.729587623E-1
5.413704733E0,-4.300000146E-2,-4.120000005E-1,-4.869999886E-1,6.393449690E-1
5.423442500E0,-2.469999939E-1,-2.430000007E-1,-7.200000286E-1,7.990356929E-1
5.433180108E0,-1.679999977E-1,-4.800000042E-2,-1.100000024E0,1.113789950E0
5.442917875E0,-1.499999966E-2,4.800000042E-2,-1.455999970E0,1.456868187E0
5.452655429E0,2.370000035E-1,8.399999887E-2,-1.863999963E0,1.880883001E0
5.462393274E0,6.200000048E-1,1.550000012E-1,-2.244999886E0,2.334191400E0
5.472130906E0,7.710000277E-1,2.329999954E-1,-2.578999996E0,2.701845854E0
5.481868473E0,7.649999857E-1,2.460000068E-1,-2.624000072E0,2.744288134E0
5.491606226E0,7.870000005E-1,2.509999871E-1,-2.358999968E0,2.499450108E0
5.501343843E0,7.490000129E-1,3.039999902E-1,-2.111999989E0,2.261406855E0
5.511081615E0,5.070000291E-1,4.269999862E-1,-2.065000057E0,2.168779208E0
5.520819233E0,1.120000035E-1,5.860000253E-1,-2.148000002E0,2.229314702E0
5.530556752E0,-1.340000033E-1,6.819999814E-1,-2.065999985E0,2.179778868E0
5.540294519E0,-3.599999845E-2,8.820000291E-1,-1.095000029E0,1.406501018E0
5.550032162E0,8.000000380E-3,1.167999983E0,2.639999986E-1,1.197490693E0
5.559769929E0,1.700000018E-1,1.243999958E0,1.490000010E0,1.948470150E0
5.569507561E0,3.000000026E-3,1.172999978E0,2.305999994E0,2.587194218E0
5.579245099E0,-5.979999900E-1,1.039999962E0,2.744999886E0,2.995701634E0
5.588982880E0,-1.546000004E0,7.519999743E-1,2.868999958E0,3.344664517E0
5.598720513E0,-1.998000026E0,2.800000012E-1,3.099999905E0,3.698702950E0
5.608458284E0,-2.325000048E0,7.699999809E-1,4.137000084E0,4.807628822E0
5.618195901E0,-2.098999977E0,1.151999950E0,3.881999969E0,4.561011790E0
5.627933460E0,-1.978000045E0,1.659999967E0,2.019000053E0,3.277872066E0
5.637671294E0,-1.878999949E0,2.367000103E0,1.030000001E-1,3.023894723E0
5.647408830E0,-1.626000047E0,2.911999941E0,-1.097000003E0,3.510986872E0
5.657146597E0,-1.228999972E0,2.846999884E0,-1.207000017E0,3.327566425E0
5.666884200E0,-1.472000003E0,2.637000084E0,-1.669999957E-1,3.024639226E0
5.676621967E0,-2.142999887E0,2.404000044E0,1.090999961E0,3.400286112E0
5.686359508E0,-1.625000000E0,1.307999969E0,1.113999963E0,2.364843512E0
5.696097342E0,-1.480000019E0,8.880000114E-1,1.199999973E-1,1.730128341E0
5.705834869E0,-1.345999956E0,6.129999757E-1,-7.509999871E-1,1.658760330E0
5.715572484E0,-1.254999995E0,4.429999888E-1,-1.199000001E0,1.791333297E0
5.725310260E0,-1.643000007E0,8.050000072E-1,-1.243000031E0,2.211904860E0
5.735047902E0,-1.381999969E0,7.900000215E-1,-1.269999981E0,2.036399740E0
5.744785669E0,-9.129999876E-1,4.530000091E-1,-9.909999967E-1,1.421569196E0
5.754523214E0,-5.370000005E-1,2.199999988E-1,-5.499999970E-2,5.829185191E-1
5.764260828E0,-4.099999964E-1,-2.400000021E-2,1.075000048E0,1.150782820E0
5.773998602E0,-4.110000134E-1,-2.240000069E-1,1.746000051E0,1.807654058E0
5.783736219E0,-4.670000076E-1,-4.300000072E-1,1.715000033E0,1.828719259E0
5.793473957E0,-4.659999907E-1,-5.070000291E-1,1.381999969E0,1.544062478E0
5.803211564E0,-3.350000083E-1,-4.639999866E-1,7.639999986E-1,9.545768649E-1
5.812949103E0,-5.400000140E-2,-3.729999959E-1,-1.190000027E-1,3.952290447E-1
5.822686851E0,1.209999993E-1,-3.079999983E-1,-9.679999948E-1,1.022999994E0
5.832424468E0,1.650000066E-1,-2.689999938E-1,-1.710999966E0,1.739858293E0
5.842162222E0,2.720000148E-1,-3.540000021E-1,-2.305000067E0,2.347834176E0
5.851899839E0,3.260000050E-1,-5.210000277E-1,-2.720000029E0,2.788569022E0
5.861637348E0,4.760000110E-1,-6.750000119E-1,-2.918999910E0,3.033605364E0
5.871375193E0,2.820000052E-1,-7.940000296E-1,-2.760999918E0,2.886707570E0
5.881112713E0,-1.819999963E-1,-7.020000219E-1,-2.267999887E0,2.381124003E0
5.890850480E0,-1.209999993E-1,-5.929999948E-1,-1.496000051E0,1.613786277E0
5.900588122E0,-1.000000047E-3,-4.990000129E-1,-6.909999847E-1,8.523397162E-1
5.910325889E0,-3.200000152E-2,-1.729999930E-1,4.500000179E-2,1.815984522E-1
5.920063453E0,1.030000001E-1,9.099999815E-2,8.000000119E-1,8.117204068E-1
5.929801067E0,3.840000033E-1,2.540000081E-1,1.582999945E0,1.648593592E0
5.939538865E0,8.389999866E-1,2.389999926E-1,2.569999933E0,2.714026829E0
5.949276517E0,1.228000045E0,1.070000008E-1,3.426000118E0,3.641003972E0
5.959014284E0,1.439000010E0,-2.800000086E-2,3.740000010E0,4.007381327E0
5.968751901E0,1.529000044E0,-1.369999945E-1,3.510999918E0,3.831935615E0
5.978489673E0,1.587000012E0,-1.529999971E-1,3.119999886E0,3.503766163E0
5.988227214E0,1.421000004E0,-5.600000173E-2,2.907000065E0,3.236205554E0
5.997964827E0,1.555999994E0,-1.019999981E-1,2.882999897E0,3.277686438E0
6.007702577E0,2.125999928E0,-2.829999924E-1,2.684999943E0,3.436450113E0
6.017440194E0,2.660000086E0,-2.770000100E-1,2.276999950E0,3.512414872E0
6.027177703E0,2.594000101E0,-1.200000010E-2,1.962000012E0,3.252449012E0
6.036915471E0,2.329999924E0,1.019999981E-1,1.475000024E0,2.759516029E0
6.046653098E0,2.058000088E0,-4.699999839E-2,8.650000095E-1,2.232890140E0
6.056390865E0,1.983000040E0,-4.140000045E-1,8.090000153E-1,2.181322119E0
6.066128488E0,2.290999889E0,-9.409999847E-1,1.317999959E0,2.805581108E0
6.075866255E0,2.661000013E0,-1.527999997E0,1.730999947E0,3.523076195E0
6.085603805E0,2.888999939E0,-2.053999901E0,1.789999962E0,3.971062339E0
6.095341423E0,2.940999985E0,-2.410000086E0,1.228999972E0,3.996000783E0
6.105079192E0,2.621999979E0,-2.473000050E0,3.900000080E-2,3.604460311E0
6.114816824E0,2.191999912E0,-2.290999889E0,-1.368000031E0,3.453254724E0
6.124554591E0,2.040999889E0,-2.000999928E0,-2.536000013E0,3.821122522E0
6.134292136E0,2.187999964E0,-1.690000057E0,-3.094000101E0,4.149250614E0
6.144029981E0,2.671999931E0,-1.593000054E0,-3.029999971E0,4.342595150E0
6.153767545E0,3.342999935E0,-1.773000002E0,-2.706000090E0,4.652054821E0
6.163505160E0,3.592000008E0,-2.173000097E0,-2.408999920E0,4.840214261E0
6.173242928E0,3.490999937E0,-2.443000078E0,-1.914000034E0,4.671051924E0
6.182980545E0,3.700000048E0,-2.756000042E0,-1.386000037E0,4.817315921E0
6.192718278E0,4.162000179E0,-3.042999983E0,-1.049999952E0,5.261615179E0
6.202455819E0,4.513000011E0,-3.253000021E0,-7.540000081E-1,5.614062188E0
6.212193413E0,4.491000175E0,-3.303999901E0,-8.600000143E-1,5.641373764E0
6.221931182E0,4.051000118E0,-3.137000084E0,-1.585000038E0,5.363170388E0
6.231668767E0,3.618999958E0,-2.969000101E0,-2.823999882E0,5.466909331E0
6.241406534E0,3.111000061E0,-2.825999975E0,-3.961999893E0,5.775988261E0
6.251144046E0,2.388999939E0,-2.509000063E0,-4.672999859E0,5.817158216E0
6.260881659E0,1.881999969E0,-2.309000015E0,-5.353000164E0,6.126011403E0
6.270619424E0,4.810000062E-1,-1.421000004E0,-6.236999989E0,6.414886661E0
6.280357046E0,-2.378999949E0,5.099999905E-1,-7.039999962E0,7.448579744E0
6.290094794E0,-4.842000008E0,2.056999922E0,-7.652999878E0,9.286798150E0
6.299832334E0,-5.908999920E0,2.746000051E0,-7.727000237E0,1.010758769E1
6.309569967E0,-6.068999767E0,3.278000116E0,-6.393000126E0,9.404705926E0
6.319307736E0,-6.309999943E0,3.440999985E0,-3.259000063E0,7.891619706E0
6.329045350E0,-6.478000164E0,3.342999935E0,9.539999962E-1,7.351887559E0
6.338783117E0,-6.431000233E0,3.039000034E0,4.196000099E0,8.258311088E0
6.348520676E0,-6.184999943E0,2.477999926E0,5.335999966E0,8.536252313E0
6.358258290E0,-6.129000187E0,2.539000034E0,4.441999912E0,7.983891763E0
6.367996064E0,-6.260000229E0,3.217000008E0,2.460000038E0,7.455755636E0
6.377733681E0,-6.080999851E0,3.697999954E0,1.047000051E0,7.193745336E0
6.387471224E0,-5.537000179E0,3.783999920E0,9.729999900E-1,6.776706823E0
6.397209068E0,-5.106999874E0,3.378999949E0,2.697000027E0,6.691255302E0
6.406946833E0,-4.840000153E0,2.641999960E0,5.160999775E0,7.552594517E0
6.416684374E0,-5.111000061E0,1.623999953E0,6.802999973E0,8.662592343E0
6.426421979E0,-5.968999863E0,7.960000038E-1,7.310999870E0,9.471710219E0
6.436159722E0,-6.959000111E0,2.689999938E-1,6.619999886E0,9.608560871E0
6.445897345E0,-7.660999775E0,-4.100000113E-2,5.519000053E0,9.442031569E0
6.455634883E0,-7.704999924E0,-7.299999893E-2,4.704999924E0,9.028254378E0
6.465372655E0,-7.021999836E0,-3.000000026E-3,4.395999908E0,8.284522068E0
6.475110296E0,-6.007999897E0,2.389999926E-1,4.748000145E0,7.661376452E0
6.484848063E0,-5.014999866E0,4.569999874E-1,5.780000210E0,7.665994722E0
6.494585701E0,-3.984999895E0,5.189999938E-1,6.585999966E0,7.715243399E0
6.504323239E0,-3.105999947E0,2.619999945E-1,5.559999943E0,6.374125746E0
6.514061006E0,-3.401999950E0,2.739999890E-1,5.568999767E0,6.531648954E0
6.523798624E0,-3.506999969E0,3.420000076E-1,5.730999947E0,6.727583012E0
6.533536386E0,-3.407000065E0,-1.319999993E-1,5.480000019E0,6.454105178E0
6.543274003E0,-3.460999966E0,-3.039999902E-1,5.052000046E0,6.131365363E0
6.553011566E0,-3.470999956E0,-3.630000055E-1,4.500000000E0,5.694700141E0
6.562749333E0,-3.084000111E0,-4.729999900E-1,3.822999954E0,4.934583500E0
6.572486965E0,-2.496000051E0,-4.860000014E-1,3.269000053E0,4.141566564E0
6.582224727E0,-1.973000050E0,-5.410000086E-1,2.565000057E0,3.280950396E0
6.591962301E0,-1.511999965E0,-7.059999704E-1,1.577000022E0,2.295976681E0
6.601699840E0,-1.062000036E0,-9.279999733E-1,5.569999814E-1,1.516336706E0
6.611437679E0,-6.660000086E-1,-1.131999969E0,-2.820000052E-1,1.343318259E0
6.621175219E0,-3.089999855E-1,-1.343999982E0,-8.040000200E-1,1.596318569E0
6.630912973E0,6.300000101E-2,-1.541000009E0,-8.420000076E-1,1.757160789E0
6.640650513E0,3.980000019E-1,-1.824000001E0,-3.919999897E-1,1.907627846E0
6.650388361E0,7.070000172E-1,-2.187000036E0,5.080000162E-1,2.353907857E0
6.660125902E0,1.095000029E0,-2.569999933E0,1.746000051E0,3.294304312E0
6.669863513E0,1.794999957E0,-2.984999895E0,3.467000008E0,4.914502851E0
6.679601304E0,2.808000088E0,-3.543999910E0,4.969999790E0,6.719054827E0
6.689338849E0,3.546999931E0,-4.046000004E0,5.414999962E0,7.633711360E0
6.699076693E0,3.532999992E0,-4.130000114E0,4.613999844E0,7.129374759E0
6.708814262E0,3.220999956E0,-3.891999960E0,3.525000095E0,6.160205360E0
6.718551877E0,3.520999908E0,-3.838999987E0,3.036000013E0,6.029316490E0
6.728289616E0,4.235000134E0,-3.880000114E0,3.326999903E0,6.637661890E0
6.738027229E0,4.821000099E0,-3.861999989E0,3.683000088E0,7.191771375E0
6.747764996E0,5.143000126E0,-4.164000034E0,3.913000107E0,7.687712040E0
6.757502536E0,4.794000149E0,-4.300000191E0,4.208000183E0,7.692834628E0
6.767240141E0,3.736000061E0,-4.070000172E0,3.507999897E0,6.544361018E0
6.776977910E0,2.221999884E0,-3.795000076E0,1.557000041E0,4.665142891E0
6.786715536E0,6.719999909E-1,-3.293999910E0,-7.459999919E-1,3.443622422E0
6.796453304E0,-4.650000036E-1,-2.808000088E0,-2.710000038E0,3.930036858E0
6.806190858E0,-1.475000024E0,-2.273000002E0,-3.838000059E0,4.698127130E0
6.815928472E0,-1.715999961E0,-2.082000017E0,-4.237999916E0,5.023944986E0
6.825666203E0,-2.013999939E0,-1.634999990E0,-4.157000065E0,4.900007170E0
6.835403820E0,-2.184999943E0,-9.449999928E-1,-3.884999990E0,4.556366388E0
6.845141588E0,-2.358000040E0,-2.829999924E-1,-3.953999996E0,4.612414677E0
6.854879147E0,-2.644999981E0,2.790000141E-1,-4.512000084E0,5.237557700E0
6.864616760E0,-2.834000111E0,6.269999743E-1,-5.150000095E0,5.911614549E0
6.874354505E0,-2.948999882E0,8.220000267E-1,-5.326000214E0,6.143172033E0
6.884092122E0,-2.951999903E0,9.480000138E-1,-4.736999989E0,5.661464152E0
6.893829695E0,-2.703000069E0,9.219999909E-1,-3.400000095E0,4.440303368E0
6.903567539E0,-2.387000084E0,7.440000176E-1,-1.809000015E0,3.086063266E0
6.913305069E0,-2.157999992E0,4.920000136E-1,-4.219999909E-1,2.253244765E0
6.923042836E0,-1.996000051E0,2.319999933E-1,7.129999995E-1,2.132184139E0
6.932780469E0,-1.929999948E0,9.499999881E-2,1.307999969E0,2.333407104E0
6.942518236E0,-1.932000041E0,7.400000095E-2,1.202999949E0,2.277127365E0
6.952255839E0,-1.932999969E0,9.000000358E-2,6.859999895E-1,2.053091538E0
6.961993377E0,-1.911999941E0,1.469999999E-1,1.420000046E-1,1.922892814E0
6.971731139E0,-1.679000020E0,8.600000292E-2,-1.879999936E-1,1.691679954E0
6.981468757E0,-1.325999975E0,7.999999821E-2,-2.129999995E-1,1.345379104E0
6.991206495E0,-1.174999952E0,9.700000286E-2,-2.269999981E-1,1.200651027E0
7.000944035E0,-1.213000059E0,2.500000037E-2,-4.169999957E-1,1.282919771E0
7.010681635E0,-1.338000059E0,-9.399999678E-2,-7.099999785E-1,1.517623184E0
7.020419404E0,-1.595999956E0,-1.879999936E-1,-1.055999994E0,1.922939376E0
7.030157011E0,-1.800999999E0,-3.120000064E-1,-1.347000003E0,2.270540466E0
7.039894779E0,-1.995000005E0,-3.980000019E-1,-1.360000014E0,2.447044965E0
7.049632314E0,-2.131000042E0,-5.090000033E-1,-1.103000045E0,2.452927084E0
7.059369928E0,-2.188999891E0,-6.449999809E-1,-8.109999895E-1,2.421872516E0
7.069107698E0,-2.282000065E0,-7.030000091E-1,-6.399999857E-1,2.472111100E0
7.078845310E0,-2.450000048E0,-7.139999866E-1,-7.120000124E-1,2.649384878E0
7.088582849E0,-2.684000015E0,-6.129999757E-1,-1.072000027E0,2.954455806E0
7.098320611E0,-3.036000013E0,-3.779999912E-1,-1.590000033E0,3.447938541E0
7.108058233E0,-3.283999920E0,-1.239999980E-1,-2.082999945E0,3.890876539E0
7.117796001E0,-3.576999903E0,1.280000061E-1,-2.440999985E0,4.332411942E0
7.127533617E0,-3.792999983E0,3.950000107E-1,-2.637000084E0,4.636447274E0
7.137271384E0,-3.795000076E0,5.170000196E-1,-2.536999941E0,4.594092217E0
7.147008998E0,-3.786000013E0,7.049999833E-1,-2.180000067E0,4.425293365E0
7.156746536E0,-3.750000000E0,8.119999766E-1,-1.480999947E0,4.112809843E0
7.166484323E0,-3.789999962E0,9.720000029E-1,-4.160000086E-1,3.934709611E0
7.176221940E0,-3.743000031E0,1.133000016E0,5.950000286E-1,3.955725382E0
7.185959674E0,-3.625999928E0,1.213000059E0,1.297999978E0,4.037827208E0
7.195697215E0,-3.592999935E0,1.421000004E0,1.521000028E0,4.152388545E0
7.205434838E0,-3.631999969E0,1.784000039E0,1.187999964E0,4.217276827E0
7.215172597E0,-3.562000036E0,2.147000074E0,2.290000021E-1,4.165320465E0
7.224910215E0,-3.164999962E0,2.446000099E0,-1.125000000E0,4.155209531E0
7.234647982E0,-2.335999966E0,2.588999987E0,-2.493999958E0,4.287173027E0
7.244385536E0,-1.320000052E0,2.763999939E0,-2.947999954E0,4.251211537E0
7.254123150E0,-5.870000124E-1,2.849999905E0,-2.529999971E0,3.855900456E0
7.263860919E0,-2.509999871E-1,2.453999996E0,-1.827999949E0,3.070293274E0
7.273598537E0,-1.280000061E-1,1.631000042E0,-7.739999890E-1,1.809867708E0
7.283336089E0,-1.729999930E-1,7.319999933E-1,5.699999928E-1,9.437441283E-1
7.293073856E0,-3.330000043E-1,-2.460000068E-1,1.934000015E0,1.977817248E0
7.302811464E0,-3.269999921E-1,-1.245000005E0,2.848999977E0,3.126300510E0
7.312549231E0,-5.310000181E-1,-2.045000076E0,3.653000116E0,4.219999548E0
7.322286839E0,-6.679999828E-1,-2.756000042E0,4.484000206E0,5.305470578E0
7.332024378E0,-6.309999824E-1,-3.410000086E0,5.138999939E0,6.199643694E0
7.341762131E0,-8.569999933E-1,-3.950999975E0,5.763999939E0,7.040493242E0
7.351499748E0,-1.077000022E0,-4.414000034E0,6.102000237E0,7.607741599E0
7.361237516E0,-1.230999947E0,-4.603000164E0,5.856999874E0,7.550325748E0
7.370975056E0,-1.054000020E0,-4.447999954E0,5.136000156E0,6.875617590E0
7.380712900E0,-5.400000215E-1,-3.994999886E0,4.405000210E0,5.971235296E0
7.390450407E0,1.230000034E-1,-3.476000071E0,3.578999996E0,4.990685971E0
7.400188037E0,1.001000047E0,-2.911999941E0,2.769999981E0,4.141816587E0
7.409925800E0,2.194000006E0,-2.563999891E0,2.190999985E0,4.023457767E0
7.419663421E0,3.418999910E0,-2.430000067E0,2.079999924E0,4.681971849E0
7.429400959E0,4.566999912E0,-2.611000061E0,2.109999895E0,5.668060433E0
7.439138727E0,5.302000046E0,-2.877000093E0,2.344000101E0,6.471682200E0
7.448876364E0,6.064000130E0,-3.325000048E0,2.556999922E0,7.373328386E0
7.458614131E0,6.663000107E0,-3.674000025E0,2.417000055E0,7.983466407E0
7.468351676E0,6.877999783E0,-3.690000057E0,1.722000003E0,7.993013539E0
7.478089289E0,6.875000000E0,-3.532999992E0,8.199999928E-1,7.773037626E0
7.487827059E0,6.743000031E0,-3.211999893E0,-6.400000304E-2,7.469209378E0
7.497564676E0,6.690999985E0,-2.825999975E0,-7.030000091E-1,7.297257407E0
7.507302462E0,6.387000084E0,-2.331000090E0,-1.445000052E0,6.950924877E0
7.517040080E0,5.763000011E0,-2.036999941E0,-1.939000010E0,6.412585979E0
7.526777642E0,4.948999882E0,-1.743000031E0,-8.980000019E-1,5.323255859E0
7.536515409E0,3.869999886E0,-1.687000036E0,2.660000026E-1,4.230085606E0
7.546252999E0,2.756000042E0,-2.371000051E0,-2.846999884E0,4.617638554E0
7.555990780E0,1.342000008E0,-2.947999954E0,-4.098999977E0,5.224315129E0
7.565728306E0,-2.790000141E-1,-2.855000019E0,-4.136000156E0,5.033424621E0
7.575465920E0,-9.179999828E-1,-2.434999943E0,-3.927999973E0,4.711807772E0
7.585203708E0,-3.100000024E-1,-1.866000056E0,-2.546999931E0,3.172580158E0
7.594941355E0,1.373999953E0,-9.309999943E-1,5.230000019E-1,1.740162597E0
7.604678893E0,2.937000036E0,2.129999995E-1,3.726999998E0,4.749933389E0
7.614416746E0,3.990999937E0,7.850000262E-1,5.506999969E0,6.846265712E0
7.624154287E0,4.336999893E0,8.389999866E-1,5.698999882E0,7.210553980E0
7.633892035E0,4.280000210E0,6.779999733E-1,5.171999931E0,6.747419436E0
7.643629652E0,3.956000090E0,3.860000074E-1,3.941999912E0,5.598061810E0
7.653367444E0,3.697000027E0,7.400000095E-2,2.315999985E0,4.363157243E0
7.663104984E0,3.382999897E0,3.299999982E-2,8.650000095E-1,3.491991168E0
7.672842592E0,2.931999922E0,2.220000029E-1,-3.140000105E-1,2.957110676E0
7.682580362E0,2.421000004E0,3.849999905E-1,-9.409999847E-1,2.625823106E0
7.692317984E0,1.822000027E0,3.650000095E-1,-9.120000005E-1,2.069940363E0
7.702055523E0,8.479999900E-1,2.619999945E-1,-5.569999814E-1,1.047853501E0
7.711793299E0,-2.730000019E-1,1.129999980E-1,-2.409999967E-1,3.812859806E-1
7.721530916E0,-1.106999993E0,-2.290000021E-1,-1.600000076E-2,1.130551187E0
7.731268684E0,-1.263000011E0,-5.649999976E-1,1.059999987E-1,1.387670720E0
7.741006316E0,-1.019999981E0,-6.959999800E-1,-3.500000015E-2,1.235330293E0
7.750743854E0,-3.479999900E-1,-5.189999938E-1,-6.880000234E-1,9.294132659E-1
7.760481622E0,-3.219999969E-1,-5.429999828E-1,-1.750000000E0,1.860385170E0
7.770219239E0,-2.890000045E-1,-9.240000248E-1,-3.322000027E0,3.460199593E0
7.779957006E0,-1.089999974E-1,-1.449999958E-1,-4.673999786E0,4.677518573E0
7.789694537E0,-2.140000015E-1,7.800000161E-2,-5.385000229E0,5.389815161E0
7.799432150E0,-5.999999866E-2,1.250000000E-1,-5.181000233E0,5.182855237E0
7.809169944E0,-1.169999987E-1,3.050000072E-1,-4.257999897E0,4.270512513E0
7.818907561E0,-9.300000221E-2,1.169999987E-1,-2.828999996E0,2.832945283E0
7.828645318E0,-2.669999897E-1,-6.499999762E-2,-1.284000039E0,1.313076576E0
7.838382859E0,-5.809999704E-1,-1.669999957E-1,-3.350000083E-1,6.911403402E-1
7.848120722E0,-9.350000024E-1,-3.009999990E-1,-3.639999926E-1,1.047531383E0
7.857858262E0,-1.179999948E0,-3.479999900E-1,-6.729999781E-1,1.402295561E0
7.867595883E0,-1.207999945E0,-2.590000033E-1,-2.759999931E-1,1.265907131E0
7.877333383E0,-1.098999977E0,-1.560000032E-1,3.589999974E-1,1.166626739E0
7.887071231E0,-9.020000100E-1,-5.999999866E-2,1.192000031E0,1.496017411E0
7.896808772E0,-5.149999857E-1,-1.600000076E-2,1.876999974E0,1.946435175E0
7.906546549E0,-1.239999980E-1,1.019999981E-1,2.173000097E0,2.178923914E0
7.916284167E0,1.909999996E-1,2.849999964E-1,2.354000092E0,2.378869990E0
7.926021944E0,7.639999986E-1,3.199999928E-1,1.766000032E0,1.950603011E0
7.935759484E0,8.809999824E-1,1.650000066E-1,3.088000059E0,3.215451809E0
7.945497093E0,1.309000015E0,2.099999934E-1,3.997999907E0,4.212076007E0
7.955234862E0,1.578999996E0,1.959999949E-1,5.031000137E0,5.276610595E0
7.964972479E0,1.769000053E0,-7.199999690E-2,5.380000114E0,5.663827895E0
7.974709998E0,1.904000044E0,-2.739999890E-1,5.546999931E0,5.871073190E0
7.984447765E0,1.838000059E0,-1.770000011E-1,5.335000038E0,5.645511370E0
7.994185348E0,1.759999990E0,-8.799999952E-2,4.467999935E0,4.802954027E0
8.003923116E0,1.677000046E0,1.209999993E-1,3.265000105E0,3.672491775E0
8.013660752E0,1.542999983E0,2.639999986E-1,1.875000000E0,2.442574451E0
8.023398291E0,1.472000003E0,5.979999900E-1,1.143000007E0,1.957252414E0
8.033136063E0,1.294000030E0,7.160000205E-1,5.680000186E-1,1.584208360E0
8.042873680E0,9.750000238E-1,5.360000134E-1,-1.309999973E-1,1.120304450E0
8.052611448E0,5.189999938E-1,6.370000243E-1,-1.044000030E0,1.328557897E0
8.062348988E0,1.300000027E-2,6.750000119E-1,-2.118999958E0,2.223950278E0
8.072086610E0,-4.199999869E-1,6.930000186E-1,-3.045000076E0,3.150979924E0
8.081824380E0,-6.650000215E-1,7.310000062E-1,-3.608000040E0,3.740888975E0
8.091561983E0,-6.880000234E-1,8.059999943E-1,-3.835000038E0,3.978719055E0
8.101299522E0,-7.009999752E-1,9.499999881E-1,-3.760999918E0,3.941956535E0
8.111037246E0,-6.409999728E-1,9.599999785E-1,-3.596999884E0,3.777683032E0
8.120774863E0,-5.139999986E-1,7.810000181E-1,-3.283999920E0,3.414500330E0
8.130512654E0,-3.449999988E-1,5.669999719E-1,-2.953999996E0,3.027644290E0
8.140250195E0,1.700000092E-2,2.489999980E-1,-2.621000051E0,2.632856105E0
8.149987803E0,6.750000119E-1,-2.910000086E-1,-2.187999964E0,2.308170241E0
8.159725573E0,1.679999948E0,-9.739999771E-1,-1.422000051E0,2.406898403E0
8.169463233E0,2.885999918E0,-1.748999953E0,-4.169999957E-1,3.400277247E0
8.179200772E0,4.349999905E0,-2.640000105E0,4.909999967E-1,5.112062277E0
8.188938611E0,6.097000122E0,-3.338999987E0,1.368999958E0,7.084948291E0
8.198676137E0,7.980000019E0,-4.131999969E0,1.601999998E0,9.127991457E0
8.208413899E0,9.098999977E0,-4.454999924E0,3.889999986E-1,1.013854752E1
8.218151517E0,8.972000122E0,-3.865000010E0,-6.769999862E-1,9.792514501E0
8.227889265E0,9.166000366E0,-4.068999767E0,-1.459999979E-1,1.002963797E1
8.237626806E0,9.296999931E0,-4.708000183E0,8.989999890E-1,1.045981235E1
8.247364423E0,8.928999901E0,-5.201000214E0,2.352999926E0,1.059783238E1
8.257102192E0,7.953000069E0,-5.459000111E0,3.607000113E0,1.029860875E1
8.266839825E0,6.343999863E0,-5.342000008E0,3.604000092E0,9.042793540E0
8.276577363E0,4.859000206E0,-4.868000031E0,2.924999952E0,7.474150923E0
8.286315140E0,4.103000164E0,-4.015999794E0,2.911999941E0,6.437593366E0
8.296052758E0,3.615000010E0,-3.019999981E0,3.640000105E0,5.953001404E0
8.305790516E0,3.658999920E0,-2.260999918E0,4.888999939E0,6.511737206E0
8.315528057E0,3.917000055E0,-1.404000044E0,6.267000198E0,7.522592442E0
8.325265636E0,4.370999813E0,-7.250000238E-1,7.278999805E0,8.521449558E0
8.335003400E0,4.947000027E0,-9.799999744E-2,7.657000065E0,9.116581775E0
8.344740975E0,5.390999794E0,3.319999874E-1,7.390999794E0,9.154232940E0
8.354478527E0,5.618000031E0,7.070000172E-1,6.182000160E0,8.383251120E0
8.364216337E0,5.739999771E0,9.390000105E-1,3.848000050E0,6.973981845E0
8.373953955E0,5.703999996E0,1.098000050E0,1.268000007E0,5.945506209E0
8.383691708E0,5.401000023E0,1.171000004E0,-7.120000124E-1,5.572161724E0
8.393429249E0,4.790999889E0,9.549999833E-1,-1.998000026E0,5.278040262E0
8.403166862E0,3.786000013E0,5.669999719E-1,-2.677999973E0,4.671934174E0
8.412904640E0,2.500000000E0,1.589999944E-1,-3.085999966E0,3.974754934E0
8.422642258E0,1.113999963E0,-2.879999876E-1,-3.585000038E0,3.765124856E0
8.432379767E0,-5.999999866E-2,-6.930000186E-1,-3.805999994E0,3.869041869E0
8.442117534E0,-7.459999919E-1,-1.075000048E0,-3.338000059E0,3.585301310E0
8.451855157E0,-1.483000040E0,-1.286999941E0,-2.736000061E0,3.367692727E0
8.461592924E0,-2.220999956E0,-1.389000058E0,-2.592999935E0,3.685893464E0
8.471330479E0,-2.811000109E0,-1.457000017E0,-2.996000051E0,4.358966273E0
8.481068093E0,-3.009000063E0,-1.424999952E0,-3.628000021E0,4.924133466E0
8.490805852E0,-2.947000027E0,-1.241000056E0,-4.168000221E0,5.253295741E0
8.500543470E0,-2.690000057E0,-9.819999933E-1,-4.642000198E0,5.454226814E0
8.510281022E0,-2.693000078E0,-8.399999738E-1,-4.798999786E0,5.566708931E0
8.520018862E0,-2.724999905E0,-1.029999971E0,-4.089000225E0,5.020602281E0
8.529756407E0,-2.766000032E0,-1.338999987E0,-2.627000093E0,4.042871088E0
8.539494174E0,-3.073999882E0,-1.417000055E0,-7.440000176E-1,3.465674603E0
8.549231709E0,-3.625000000E0,-1.171000004E0,1.113999963E0,3.968987519E0
8.558969554E0,-4.495999813E0,-6.719999909E-1,2.015000105E0,4.972506785E0
8.568707089E0,-5.428999901E0,-1.230000034E-1,1.817000031E0,5.726312779E0
8.578444704E0,-6.787000179E0,6.430000067E-1,8.679999709E-1,6.872426383E0
8.588182491E0,-7.469999790E0,1.047999978E0,-6.029999852E-1,7.567219423E0
8.597920108E0,-7.637000084E0,1.444000006E0,-1.550999999E0,7.925560377E0
8.607657637E0,-7.774000168E0,1.940999985E0,-1.412999988E0,8.136284687E0
8.617395404E0,-7.618999958E0,2.053999901E0,-7.340000272E-1,7.925076151E0
8.627133041E0,-7.201000214E0,1.860999942E0,6.190000176E-1,7.463302612E0
8.636870809E0,-6.289999962E0,1.493999958E0,3.325999975E0,7.270379029E0
8.646608349E0,-5.106999874E0,7.649999857E-1,6.486999989E0,8.291431815E0
8.656345962E0,-4.480000019E0,-1.609999985E-1,8.501000404E0,9.610584220E0
8.666083727E0,-4.119999886E0,-9.810000062E-1,9.152000427E0,1.008443711E1
8.675821344E0,-3.519999981E0,-1.328999996E0,9.017999649E0,9.771435848E0
8.685558873E0,-2.336999893E0,-1.294000030E0,8.340999603E0,8.758326265E0
8.695296640E0,-1.060999990E0,-1.074000001E0,7.317999840E0,7.472102692E0
8.705034252E0,1.959999949E-1,-7.990000248E-1,6.224999905E0,6.279127396E0
8.714772020E0,8.870000243E-1,-4.799999893E-1,5.328000069E0,5.422615030E0
8.724509560E0,1.037999988E0,-3.109999895E-1,4.418000221E0,4.548943935E0
8.734247178E0,8.679999709E-1,-4.140000045E-1,3.375000000E0,3.509336825E0
8.743984948E0,4.499999881E-1,-4.819999933E-1,2.388000011E0,2.477371195E0
8.753722575E0,7.800000161E-2,-5.619999766E-1,1.555999994E0,1.656219779E0
8.763460114E0,-1.220000014E-1,-6.940000057E-1,1.074000001E0,1.284521705E0
8.773197881E0,-2.300000042E-1,-7.549999952E-1,1.042999983E0,1.307965580E0
8.782935498E0,-2.150000036E-1,-7.009999752E-1,1.100000024E0,1.321978071E0
8.792673269E0,-5.900000036E-2,-5.989999771E-1,1.016999960E0,1.181766005E0
8.802410810E0,2.560000122E-1,-4.070000052E-1,5.440000296E-1,7.260310205E-1
8.812148399E0,6.290000081E-1,-1.850000024E-1,-2.890000045E-1,7.165103026E-1
8.821886169E0,8.600000143E-1,8.999999613E-3,-1.266999960E0,1.531329463E0
8.831623781E0,7.889999747E-1,1.860000044E-1,-2.313999891E0,2.451879373E0
8.841361315E0,5.370000005E-1,2.409999967E-1,-3.311000109E0,3.362911197E0
8.851099097E0,3.160000145E-1,1.620000005E-1,-4.013999939E0,4.029676850E0
8.860836714E0,2.509999871E-1,1.360000074E-1,-4.367000103E0,4.376321160E0
8.870574248E0,2.649999857E-1,1.560000032E-1,-4.392000198E0,4.402752177E0
8.880312015E0,3.140000105E-1,1.490000039E-1,-4.293000221E0,4.307046309E0
8.890049646E0,4.029999971E-1,1.330000013E-1,-4.221000195E0,4.242280123E0
8.899787414E0,6.560000181E-1,1.379999965E-1,-4.210999966E0,4.264024007E0
8.909525036E0,7.680000067E-1,2.389999926E-1,-4.293000221E0,4.367699155E0
8.919262803E0,8.169999719E-1,3.729999959E-1,-4.526999950E0,4.615229843E0
8.929000334E0,7.979999781E-1,4.420000017E-1,-4.710999966E0,4.798509002E0
8.938737947E0,7.699999809E-1,5.659999847E-1,-4.715000153E0,4.810871272E0
8.948475721E0,7.149999738E-1,6.499999762E-1,-4.638999939E0,4.738569970E0
8.958213339E0,7.599999905E-1,7.760000229E-1,-4.567999840E0,4.695359258E0
8.967950887E0,9.800000191E-1,7.879999876E-1,-4.485000134E0,4.657957730E0
8.977688655E0,1.325999975E0,7.340000272E-1,-4.277999878E0,4.538536651E0
8.987426267E0,1.715000033E0,7.250000238E-1,-3.615000010E0,4.066334371E0
8.997164058E0,2.121999979E0,9.290000200E-1,-2.640000105E0,3.512196678E0
9.006901594E0,2.786999941E0,1.029000044E0,-1.600000024E0,3.374345838E0
9.016639207E0,3.104000092E0,1.167999983E0,-7.099999785E-1,3.391628001E0
9.026376952E0,3.059000015E0,1.442999959E0,-2.049999982E-1,3.388473841E0
9.036114570E0,3.096999884E0,1.488999963E0,-1.350000054E-1,3.439004823E0
9.045852093E0,2.760999918E0,1.445999980E0,-4.899999872E-2,3.117120063E0
9.055589860E0,2.335999966E0,1.389000058E0,5.809999704E-1,2.779168575E0
9.065327488E0,1.830999970E0,1.042999983E0,2.141000032E0,3.004045771E0
9.075065026E0,1.476999998E0,2.150000036E-1,4.625999928E0,4.860825992E0
9.084802794E0,1.363000035E0,-5.780000091E-1,7.657000065E0,7.798814211E0
9.094540411E0,1.049000025E0,-1.009999990E0,9.519000053E0,9.629738473E0
9.104278178E0,5.609999895E-1,-1.182999969E0,9.425000191E0,9.515505163E0
9.114015719E0,2.310000062E-1,-9.340000153E-1,8.144000053E0,8.200637408E0
9.123753563E0,2.119999975E-1,-4.970000088E-1,6.346000195E0,6.368961570E0
9.133491108E0,3.240000010E-1,-2.160000056E-1,4.638000011E0,4.654318007E0
9.143228724E0,4.830000103E-1,-5.400000140E-2,3.651999950E0,3.684197151E0
9.152966252E0,4.580000043E-1,1.270000041E-1,3.140000105E0,3.175766626E0
9.162704096E0,3.479999900E-1,2.579999864E-1,2.654999971E0,2.690110190E0
9.172441618E0,2.109999955E-1,2.949999869E-1,2.239000082E0,2.268185918E0
9.182179156E0,1.799999923E-2,3.939999938E-1,1.792000055E0,1.834890785E0
9.191917006E0,-2.399999946E-1,4.850000143E-1,1.059000015E0,1.189245998E0
9.201654546E0,-4.939999878E-1,5.720000267E-1,-1.099999994E-2,7.558710330E-1
9.211392313E0,-7.070000172E-1,6.250000000E-1,-1.309999943E0,1.614488735E0
9.221129854E0,-9.660000205E-1,7.390000224E-1,-2.549999952E0,2.825203856E0
9.230867697E0,-1.261999965E0,8.399999738E-1,-3.598000050E0,3.904337104E0
9.240605238E0,-1.560999990E0,9.559999704E-1,-4.394000053E0,4.760030817E0
9.250342825E0,-1.853999972E0,1.041000009E0,-5.038000107E0,5.468312536E0
9.260080592E0,-2.194000006E0,1.078999996E0,-5.449999809E0,5.973305194E0
9.269818210E0,-2.551000118E0,1.103999972E0,-5.683000088E0,6.326366061E0
9.279555748E0,-2.808000088E0,1.108999968E0,-5.712999821E0,6.461664830E0
9.289293529E0,-2.980000019E0,1.065999985E0,-5.405000210E0,6.263448200E0
9.299031147E0,-3.061000109E0,1.003000021E0,-4.971000195E0,5.923392072E0
9.308768699E0,-3.177999973E0,9.499999881E-1,-4.629000187E0,5.694719180E0
9.318506490E0,-3.335999966E0,8.759999871E-1,-4.405000210E0,5.594666978E0
9.328244108E0,-3.503000021E0,7.829999924E-1,-4.356999874E0,5.645134723E0
9.337981885E0,-3.673000097E0,7.409999967E-1,-4.314000130E0,5.714071038E0
9.347719407E0,-3.588000059E0,7.799999714E-1,-4.290999889E0,5.647550303E0
9.357457020E0,-3.312999964E0,7.409999967E-1,-4.077000141E0,5.305372740E0
9.367194822E0,-3.019999981E0,5.440000296E-1,-3.464999914E0,4.628451180E0
9.376932440E0,-2.964999914E0,2.720000148E-1,-2.450999975E0,3.856502221E0
9.386669978E0,-3.089999914E0,-1.899999939E-2,-1.335999966E0,3.366505069E0
9.396407745E0,-3.329999924E0,-3.170000017E-1,-4.309999943E-1,3.372706552E0
9.406145388E0,-3.302000046E0,-6.399999857E-1,4.129999876E-1,3.388712628E0
9.415882926E0,-3.035000086E0,-8.830000162E-1,1.322000027E0,3.426163834E0
9.425620675E0,-2.549999952E0,-1.042000055E0,2.447000027E0,3.684572296E0
9.435358292E0,-1.907999992E0,-1.355999947E0,3.762000084E0,4.430783729E0
9.445096059E0,-1.011999965E0,-1.858000040E0,5.046999931E0,5.472523767E0
9.454833605E0,1.400000043E-2,-2.349999905E0,6.258999825E0,6.685639413E0
9.464571218E0,1.041000009E0,-2.887000084E0,7.193999767E0,7.821258412E0
9.474308991E0,1.965000033E0,-3.203999996E0,7.730999947E0,8.596231807E0
9.484046532E0,2.490000010E0,-3.256000042E0,7.763000011E0,8.778713203E0
9.493784160E0,2.680000067E0,-3.315999985E0,7.091000080E0,8.274088372E0
9.503521930E0,2.930000067E0,-3.444999933E0,5.796999931E0,7.352423623E0
9.513259551E0,3.288000107E0,-3.532000065E0,4.048999786E0,6.299235543E0
9.522997089E0,4.216000080E0,-3.569999933E0,2.645999908E0,6.125428288E0
9.532734944E0,4.922999859E0,-3.230000019E0,3.288000107E0,6.743869248E0
9.542472484E0,4.861999989E0,-2.558000088E0,5.064000130E0,7.471713702E0
9.552210251E0,4.776000023E0,-2.147000074E0,6.486000061E0,8.335945197E0
9.561947869E0,4.478000164E0,-1.746999979E0,6.402999878E0,8.006428781E0
9.571685388E0,3.920000076E0,-1.610000014E0,4.828999996E0,6.424775608E0
9.581423155E0,3.010999918E0,-1.463000059E0,2.306999922E0,4.065555106E0
9.591160753E0,1.998999953E0,-1.210000038E0,-5.939999819E-1,2.411003294E0
9.600898520E0,6.389999986E-1,-9.099999815E-2,-2.585999966E0,2.665332591E0
9.610636056E0,5.299999937E-2,8.889999986E-1,-3.663000107E0,3.769708182E0
9.620373669E0,-6.399999857E-1,1.894000053E0,-3.035000086E0,3.634289711E0
9.630111438E0,-1.347000003E0,2.852999926E0,-1.420000046E-1,3.158192772E0
9.639848979E0,-7.919999957E-1,2.950999975E0,3.138000011E0,4.379806950E0
9.649586597E0,1.011000037E0,2.252000093E0,4.585999966E0,5.208168697E0
9.659324366E0,1.824000001E0,2.188999891E0,4.800000191E0,5.581997703E0
9.669061970E0,2.331000090E0,2.721999884E0,4.809999943E0,5.998245096E0
9.678799508E0,2.944000006E0,3.515000105E0,5.175000191E0,6.913970548E0
9.688537247E0,3.859999895E0,4.164999962E0,5.598000050E0,7.973984476E0
9.698274864E0,4.876999855E0,4.311999798E0,5.866000175E0,8.762900656E0
9.708012392E0,5.789000034E0,4.280000210E0,6.190999985E0,9.495230592E0
9.717750160E0,6.524000168E0,3.641000032E0,5.745999813E0,9.425283724E0
9.727487796E0,7.684999943E0,1.873000026E0,3.040999889E0,8.474375112E0
9.737225563E0,7.114999771E0,1.187000036E0,-6.079999804E-1,7.238912543E0
9.746963119E0,5.747000217E0,2.451999903E0,-2.601999998E0,6.768361619E0
9.756700732E0,4.754000187E0,2.165999889E0,-2.834000111E0,5.943368567E0
9.766438502E0,4.671000004E0,1.840000004E-1,-2.121000051E0,5.133297016E0
9.776176119E0,5.672999859E0,-1.565999985E0,-9.200000018E-2,5.885893930E0
9.785913657E0,6.765999794E0,-3.250999928E0,1.253000021E0,7.610372054E0
9.795651420E0,6.918000221E0,-4.284999847E0,2.397000074E0,8.483251742E0
9.805389037E0,6.677000046E0,-4.765999794E0,2.762000084E0,8.655964886E0
9.815126576E0,5.859000206E0,-5.328999996E0,1.988999963E0,8.165919742E0
9.824864343E0,4.725999832E0,-5.629000187E0,3.989999890E-1,7.360700952E0
9.834601974E0,3.516999960E0,-5.618000031E0,-1.236999989E0,6.742505620E0
9.844339742E0,2.519999981E0,-5.197000027E0,-2.404999971E0,6.256455390E0
9.854077292E0,1.218999982E0,-3.941999912E0,-2.443000078E0,4.795161483E0
9.863814905E0,3.300000131E-1,-2.572000027E0,-1.843000054E0,3.181310005E0
9.873552670E0,1.689999998E-1,-1.894000053E0,-7.200000286E-1,2.033272545E0
9.883290287E0,1.417999983E0,-2.390000105E0,-6.599999964E-2,2.779780648E0
9.893027840E0,3.013999939E0,-3.319000006E0,8.209999800E-1,4.557850111E0
9.902765607E0,3.844000101E0,-3.720000029E0,5.230000019E-1,5.374780553E0
9.912503138E0,3.858000040E0,-4.153999805E0,-1.883000016E0,5.973739847E0
9.922240982E0,3.148999929E0,-4.211999893E0,-5.492000103E0,7.603894317E0
9.931978556E0,1.927000046E0,-3.569000006E0,-1.068000031E1,1.142425038E1
9.941716171E0,1.300999999E0,-3.562000036E0,-1.114999962E1,1.177722110E1
9.951453925E0,5.889999866E-1,-2.563999891E0,-1.234399986E1,1.262122613E1
9.961191479E0,4.339999855E-1,-2.164000034E0,-1.104500008E1,1.126336001E1
9.970929107E0,1.957999945E0,-2.740999937E0,-8.057999611E0,8.733739300E0
9.980666876E0,3.490999937E0,-3.417000055E0,-5.664999962E0,7.480320482E0
9.990404493E0,4.469999790E0,-3.984999895E0,-3.927999973E0,7.161725077E0
1.000014203E1,4.308000088E0,-4.482999802E0,-3.467999935E0,7.119211721E0
1.000987978E1,3.394000053E0,-4.909999847E0,-3.667000055E0,7.005299727E0
1.001961740E1,2.194999933E0,-5.236000061E0,-3.822999954E0,6.844636586E0
1.002935492E1,1.090999961E0,-5.712999821E0,-3.305999994E0,6.690163214E0
1.003909272E1,7.369999886E-1,-6.492000103E0,-1.914000034E0,6.808276614E0
1.004883034E1,4.320000112E-1,-6.939000130E0,-1.239999980E-1,6.953540308E0
1.005856810E1,2.310000062E-1,-7.013999939E0,1.962000012E0,7.286906078E0
1.006830564E1,-3.700000048E-2,-7.002999783E0,3.726999998E0,7.933089180E0
1.007804326E1,-2.419999987E-1,-7.146999836E0,4.919000149E0,8.679558348E0
1.008778102E1,-9.470000267E-1,-7.388999939E0,4.985000134E0,8.963501296E0
1.009751858E1,-2.246999979E0,-7.511000156E0,4.441999912E0,9.010854314E0
1.010725619E1,-4.089000225E0,-7.455999851E0,3.805000067E0,9.316108744E0
1.011699396E1,-5.586999893E0,-7.247000217E0,3.190000057E0,9.690700714E0
1.012673158E1,-6.294000149E0,-7.166999817E0,2.299999952E0,9.811744189E0
1.013646936E1,-6.165999889E0,-6.772999763E0,2.611000061E0,9.524200846E0
1.014620690E1,-4.498000145E0,-6.627999783E0,2.457000017E0,8.378498404E0
1.015594451E1,-3.170000076E0,-6.278999805E0,2.026000023E0,7.319796113E0
1.016568205E1,-2.039999962E0,-5.583000183E0,4.970000088E-1,5.964771571E0
1.017541985E1,-5.419999957E-1,-5.269999981E0,-2.296999931E0,5.774328747E0
1.018515744E1,4.250000119E-1,-4.708000183E0,-6.039999962E0,7.669908101E0
1.019489497E1,3.529999852E-1,-4.137000084E0,-9.421999931E0,1.029628386E1
1.020463285E1,2.339999974E-1,-3.819000006E0,-1.174699974E1,1.235441297E1
1.021437038E1,8.209999800E-1,-4.054999828E0,-1.198299980E1,1.267711911E1
1.022410815E1,1.625000000E0,-4.461999893E0,-1.039500046E1,1.142830270E1
1.023384579E1,2.170000076E0,-5.020999908E0,-8.022999763E0,9.710193902E0
1.024358333E1,2.385999918E0,-5.471000195E0,-6.703000069E0,8.975246440E0
1.025332110E1,1.440000057E0,-5.051000118E0,-6.440999985E0,8.310997724E0
1.026305872E1,8.200000226E-2,-5.177999973E0,-6.250999928E0,8.117475458E0
1.027279651E1,-1.314000010E0,-6.357999802E0,-5.866000175E0,8.749898032E0
1.028253407E1,-2.700000048E0,-6.524000168E0,-4.659999847E0,8.459797694E0
1.029227166E1,-2.028000116E0,-6.150000095E0,-2.911000013E0,7.099944135E0
1.030200942E1,-8.909999728E-1,-5.426000118E0,-1.669000030E0,5.746383152E0
1.031174695E1,4.140000045E-1,-3.654999971E0,-5.469999909E-1,3.718821021E0
1.032148456E1,1.947000027E0,-2.036000013E0,1.749999970E-1,2.822539664E0
1.033122232E1,3.010999918E0,-1.848999977E0,3.630000055E-1,3.551998089E0
1.034095986E1,3.704999924E0,-2.838000059E0,2.630000114E-1,4.674445184E0
1.035069746E1,3.986000061E0,-4.223999977E0,7.179999948E-1,5.851999341E0
1.036043523E1,3.415999889E0,-6.124000072E0,3.305999994E0,7.752552360E0
1.037017284E1,3.224999905E0,-8.170999527E0,9.086999893E0,1.263880630E1
1.037991038E1,4.730000019E0,-9.527000427E0,1.662000084E1,1.973223417E1
1.038964815E1,6.704999924E0,-9.076999664E0,2.338899994E1,2.596910212E1
1.039938576E1,7.981999874E0,-7.188000202E0,2.637000084E1,2.847378818E1
1.040912329E1,9.763999939E0,-5.196000099E0,2.355299950E1,2.602072053E1
1.041886105E1,1.147500038E1,-3.142999887E0,1.654100037E1,2.037544540E1
1.042859867E1,1.243900013E1,-1.202999949E0,8.737999916E0,1.524888769E1
1.043833641E1,1.274499989E1,-1.300000027E-2,3.164000034E0,1.313187295E1
1.044807396E1,1.219699955E1,4.059999883E-1,5.899999738E-1,1.221800859E1
1.045781157E1,1.101399994E1,3.310000002E-1,6.140000224E-1,1.103606595E1
1.046754933E1,9.725999832E0,1.169999987E-1,1.526999950E0,9.845836205E0
1.047728695E1,8.343999863E0,1.500000060E-1,1.950999975E0,8.570369573E0
1.048702449E1,7.468999863E0,2.450000048E-1,2.176000118E0,7.783377189E0
1.049676226E1,7.013999939E0,4.280000031E-1,2.078000069E0,7.327855309E0
1.050649980E1,6.701000214E0,9.110000134E-1,1.103999972E0,6.852163222E0
1.051623764E1,6.370999813E0,1.498000026E0,6.909999847E-1,6.581118725E0
1.052597519E1,6.356999874E0,2.328999996E0,4.810000062E-1,6.787271130E0
1.053571280E1,7.100999832E0,2.191999912E0,2.434999943E0,7.820376395E0
1.054545054E1,7.416999817E0,3.937999964E0,1.937999964E0,8.618327788E0
1.055518806E1,8.621000290E0,3.088000059E0,8.019999862E-1,9.192420483E0
1.056492567E1,8.206000328E0,3.319000006E0,-3.499999940E-1,8.858707717E0
1.057466347E1,8.406000137E0,2.542999983E0,-1.294999957E0,8.877201818E0
1.058440101E1,9.303999901E0,1.264999986E0,-1.356999993E0,9.487153846E0
1.059413866E1,9.803999901E0,-1.539999992E-1,-3.910000026E-1,9.813002143E0
1.060387643E1,9.824999809E0,-1.656999946E0,6.840000153E-1,9.987198110E0
1.061361407E1,8.960000038E0,-3.160000086E0,9.950000048E-1,9.552864818E0
1.062335160E1,7.146999836E0,-4.418000221E0,3.510000110E-1,8.409609600E0
1.063308915E1,5.037000179E0,-5.334000111E0,-5.009999871E-1,7.353497737E0
1.064282700E1,3.552000046E0,-6.131999969E0,-9.029999971E-1,7.143776099E0
1.065256454E1,2.509000063E0,-6.866000175E0,-8.199999928E-1,7.355911889E0
1.066230231E1,1.562999964E0,-7.607999802E0,-4.930000007E-1,7.782523940E0
1.067203991E1,8.529999852E-1,-8.359000206E0,1.200000010E-2,8.402418546E0
1.068177745E1,5.820000172E-1,-8.991000175E0,3.720000088E-1,9.017493675E0
1.069151522E1,2.870000005E-1,-9.479999542E0,4.070000052E-1,9.493071649E0
1.070125284E1,-2.000000030E-1,-9.739999771E0,2.709999979E-1,9.745821491E0
1.071099037E1,-8.659999967E-1,-9.729999542E0,2.010000050E-1,9.770529571E0
1.072072814E1,-1.598000050E0,-9.486000061E0,5.699999928E-1,9.636529526E0
1.073046577E1,-2.273999929E0,-9.043000221E0,8.510000110E-1,9.363286266E0
1.074020354E1,-3.066999912E0,-8.670000076E0,6.200000048E-1,9.217363495E0
1.074994106E1,-4.258999825E0,-7.600999832E0,3.729999959E-1,8.720860448E0
1.075967867E1,-6.842000008E0,-4.381999969E0,1.358000040E0,8.237660587E0
1.076941645E1,3.670000076E0,-6.765999794E0,2.289000034E0,8.030390708E0
1.077915399E1,2.384000063E0,-5.883999825E0,-1.465999961E0,6.515678485E0
1.078889160E1,2.890000045E-1,-6.484000206E0,-4.989999771E0,8.186933332E0
1.079862935E1,-2.131999969E0,-6.622000217E0,-7.717999935E0,1.039056465E1
1.080836689E1,-3.581000090E0,-7.216000080E0,-7.091000080E0,1.073203154E1
1.081810475E1,-4.553999901E0,-7.151000023E0,-4.589000225E0,9.640261381E0
1.082784228E1,-4.755000114E0,-6.776000023E0,-1.723000050E0,8.455349287E0
1.083757982E1,-5.604000092E0,-6.258999825E0,-5.469999909E-1,8.418972908E0
1.084731740E1,-7.150000095E0,-5.006999969E0,-3.289999962E-1,8.735032402E0
1.085705517E1,-8.277999878E0,-3.743000031E0,-8.669999838E-1,9.126172263E0
1.086679277E1,-8.819000244E0,-2.884999990E0,-9.409999847E-1,9.326492976E0
1.087653054E1,-8.817999840E0,-2.411000013E0,-4.429999888E-1,9.152392650E0
1.088626806E1,-8.295999527E0,-2.160000086E0,1.829999983E-1,8.574537744E0
1.089600567E1,-7.560999870E0,-2.032000065E0,4.639999866E-1,7.843024881E0
1.090574320E1,-6.880000114E0,-1.845999956E0,1.340000033E-1,7.124610404E0
1.091548103E1,-6.092000008E0,-1.710999966E0,-2.879999876E-1,6.334266253E0
1.092521857E1,-5.283999920E0,-1.480000019E0,-3.580000103E-1,5.499019841E0
1.093495614E1,-4.326000214E0,-1.279000044E0,9.399999678E-2,4.512089866E0
1.094469400E1,-3.171000004E0,-1.161000013E0,6.930000186E-1,3.447232380E0
1.095443154E1,-2.246999979E0,-9.879999757E-1,1.080999970E0,2.682109952E0
1.096416932E1,-1.728000045E0,-7.929999828E-1,1.396999955E0,2.359330838E0
1.097390695E1,-1.577000022E0,-5.809999704E-1,1.537999988E0,2.278142664E0
1.098364449E1,-1.268000007E0,-5.170000196E-1,1.485000014E0,2.019984673E0
1.099338226E1,-6.990000010E-1,-4.390000105E-1,1.266999960E0,1.512154393E0
1.100311988E1,1.420000046E-1,-3.799999952E-1,7.900000215E-1,8.880675828E-1
1.101285744E1,1.411000013E0,-6.600000262E-1,2.179999948E-1,1.572909746E0
1.102259520E1,2.924000025E0,-1.552000046E0,-5.299999714E-1,3.352518495E0
1.103233280E1,3.056999922E0,-1.776999950E0,-1.503000021E0,3.842133055E0
1.104207057E1,2.095000029E0,-1.552999973E0,-2.203000069E0,3.413801889E0
1.105180810E1,6.740000248E-1,-1.271000028E0,-2.545000076E0,2.923481228E0
1.106154571E1,-7.730000019E-1,-1.187999964E0,-2.523000002E0,2.893855892E0
1.107128350E1,-2.164999962E0,-1.003000021E0,-1.825999975E0,3.004581466E0
1.108102105E1,-3.230000019E0,-8.429999948E-1,-5.920000076E-1,3.390282160E0
1.109075867E1,-3.792999983E0,-4.920000136E-1,8.180000186E-1,3.911270499E0
1.110049644E1,-3.799999952E0,-1.089999974E-1,2.661000013E0,4.640344999E0
1.111023398E1,-3.164999962E0,3.240000010E-1,4.945000172E0,5.880070362E0
1.111997159E1,-1.996999979E0,7.110000253E-1,6.926000118E0,7.243135204E0
1.112970936E1,-6.990000010E-1,1.021999955E0,8.237999916E0,8.330529847E0
1.113944690E1,9.480000138E-1,1.268000007E0,8.586000443E0,8.730746339E0
1.114918455E1,2.878999949E0,1.552000046E0,8.557000160E0,9.160763974E0
1.115892232E1,4.625999928E0,1.968000054E0,8.020999908E0,9.466220950E0
1.116865993E1,5.864999771E0,2.500999928E0,6.328999996E0,8.983844606E0
1.117839769E1,6.794000149E0,2.996000051E0,4.993000031E0,8.947877046E0
1.118813526E1,7.012000084E0,3.559999943E0,5.131000042E0,9.389829935E0
1.119787288E1,7.401999950E0,3.802000046E0,6.532999992E0,1.057945634E1
1.120761064E1,8.623000145E0,3.920000076E0,8.663999557E0,1.283695526E1
1.121734818E1,9.751999855E0,3.780999899E0,1.053199959E1,1.484319631E1
1.122708578E1,9.378000259E0,3.459000111E0,1.069600010E1,1.463953513E1
1.123682330E1,8.633000374E0,2.782999992E0,9.269000053E0,1.296873727E1
1.124656113E1,7.850999832E0,1.988000035E0,7.210000038E0,1.084317495E1
1.125629867E1,7.559000015E0,1.695999980E0,4.389999866E0,8.904324567E0
1.126603646E1,6.755000114E0,1.764000058E0,1.371999979E0,7.115061960E0
1.127577400E1,6.202000141E0,1.924999952E0,-1.062999964E0,6.580303906E0
1.128551159E1,5.813000202E0,1.911000013E0,-3.806999922E0,7.206673352E0
1.129524938E1,4.749000072E0,1.485999942E0,-6.538000107E0,8.216242627E0
1.130498700E1,3.778000116E0,7.850000262E-1,-8.604000092E0,9.429651504E0
1.131472455E1,3.273000002E0,-1.140000001E-1,-9.654000282E0,1.019437327E1
1.132446232E1,2.349999905E0,-1.136999965E0,-9.762000084E0,1.010504399E1
1.133419992E1,1.021999955E0,-2.114000082E0,-9.699999809E0,9.980154135E0
1.134393746E1,-6.280000210E-1,-2.772000074E0,-9.286999702E0,9.712195010E0
1.135367522E1,-1.784999967E0,-3.111000061E0,-8.553999901E0,9.275530204E0
1.136341283E1,-2.003000021E0,-3.079999924E0,-7.019999981E0,7.923307917E0
1.137315038E1,-1.685999990E0,-2.549000025E0,-5.335999966E0,6.149218871E0
1.138288814E1,-1.195000052E0,-1.955999970E0,-4.067999840E0,4.669323688E0
1.139262576E1,-9.980000257E-1,-1.730000019E0,-2.950999975E0,3.563327794E0
1.140236353E1,-1.026999950E0,-1.766000032E0,-2.499000072E0,3.227768018E0
1.141210107E1,-4.990000129E-1,-2.220999956E0,-2.285000086E0,3.225378615E0
1.142183866E1,4.339999855E-1,-2.443000078E0,-1.350000024E0,2.824731037E0
1.143157643E1,2.154999971E0,-2.282000065E0,1.990000010E-1,3.145019900E0
1.144131399E1,3.721999884E0,-2.022000074E0,2.061000109E0,4.710572034E0
1.145105161E1,4.425000191E0,-1.531000018E0,3.257999897E0,5.704309868E0
1.146078936E1,4.646999836E0,-1.223999977E0,3.072000027E0,5.703504851E0
1.147052688E1,4.202000141E0,-1.082999945E0,1.192000031E0,4.500062015E0
1.148026449E1,3.338999987E0,-1.238000035E0,-1.705999970E0,3.948670776E0
1.149000227E1,2.329999924E0,-1.457000017E0,-4.160999775E0,4.986548688E0
1.149973980E1,1.689000010E0,-1.879999995E0,-5.382999897E0,5.946747759E0
1.150947745E1,1.253999949E0,-2.279000044E0,-4.925000191E0,5.569738230E0
1.151921522E1,4.729999900E-1,-2.651000023E0,-3.523999929E0,4.435099279E0
1.152895283E1,-2.800000086E-2,-2.841000080E0,-1.603999972E0,3.262649440E0
1.153869037E1,-1.759999990E-1,-2.934000015E0,3.009999990E-1,2.954646017E0
1.154842811E1,-3.519999981E-1,-2.579999924E0,1.807000041E0,3.169471999E0
1.155816571E1,-1.589999944E-1,-2.221999884E0,2.121999979E0,3.076596885E0
1.156790325E1,-1.129999980E-1,-1.781999946E0,1.169000030E0,2.134210363E0
1.157764100E1,-3.610000014E-1,-1.217000008E0,-2.980000079E-1,1.303922553E0
1.158737862E1,-8.769999743E-1,-4.449999928E-1,-1.661000013E0,1.930304378E0
1.159711639E1,-9.300000221E-2,-2.460000068E-1,-2.813999891E0,2.826262619E0
1.160685400E1,1.000000000E0,3.200000152E-2,-3.141999960E0,3.297451705E0
1.161659154E1,1.534000039E0,5.590000153E-1,-3.161000013E0,3.557746228E0
1.162632931E1,1.496999979E0,6.570000052E-1,-2.976999998E0,3.396349059E0
1.163606694E1,1.383999944E0,5.030000210E-1,-2.355000019E0,2.777497067E0
1.164580447E1,8.439999819E-1,3.560000062E-1,-1.871000051E0,2.083197822E0
1.165554224E1,4.999999888E-3,1.770000011E-1,-1.679999948E0,1.689305723E0
1.166527986E1,-8.659999967E-1,-1.799999923E-2,-1.699000001E0,1.907060827E0
1.167501739E1,-1.527999997E0,-2.380000055E-1,-1.769999981E0,2.350388888E0
1.168475514E1,-1.886999965E0,-3.819999993E-1,-1.815000057E0,2.645924805E0
1.169449276E1,-1.976999998E0,-3.989999890E-1,-1.896999955E0,2.768815417E0
1.170423029E1,-1.807999969E0,-3.370000124E-1,-2.052000046E0,2.755564748E0
1.171396805E1,-1.504999995E0,-1.909999996E-1,-2.470000029E0,2.898690416E0
1.172370567E1,-1.218999982E0,-2.400000021E-2,-3.155999899E0,3.383322674E0
1.173344344E1,-8.939999938E-1,-6.000000052E-3,-4.099999905E0,4.196340216E0
1.174318098E1,-5.929999948E-1,-2.500000037E-2,-4.760000229E0,4.796861075E0
1.175291861E1,-4.009999931E-1,-2.199999988E-2,-5.132999897E0,5.148686525E0
1.176265638E1,-2.569999993E-1,-9.099999815E-2,-5.149000168E0,5.156213022E0
1.177239389E1,-2.230000049E-1,-1.340000033E-1,-4.972000122E0,4.978802087E0
1.178213150E1,-1.089999974E-1,-2.660000026E-1,-4.639999866E0,4.648896187E0
1.179186925E1,3.000000119E-1,-3.980000019E-1,-4.215000153E0,4.244364534E0
1.180160679E1,1.100000024E0,-4.219999909E-1,-3.770999908E0,3.950762503E0
1.181134441E1,2.013999939E0,-4.090000093E-1,-3.562000036E0,4.112337659E0
1.182108218E1,2.936000109E0,-2.060000002E-1,-3.727999926E0,4.749791162E0
1.183081973E1,3.391000032E0,-6.599999964E-2,-4.144999981E0,5.355769045E0
1.184055735E1,3.352999926E0,-6.899999827E-2,-4.445000172E0,5.568248919E0
1.185029513E1,2.940000057E0,-1.239999980E-1,-4.073999882E0,5.025579705E0
1.186003275E1,2.338000059E0,-2.500000000E-1,-2.904999971E0,3.737347871E0
1.186977029E1,1.860999942E0,-5.830000043E-1,-1.202999949E0,2.291379206E0
1.187950805E1,1.564000010E0,-8.730000257E-1,1.016000032E0,2.059242857E0
1.188924569E1,1.302000046E0,-9.860000014E-1,3.101999998E0,3.505681690E0
1.189898345E1,1.098999977E0,-8.799999952E-1,4.492000103E0,4.707469157E0
1.190872100E1,1.151999950E0,-5.970000029E-1,5.666999817E0,5.813639120E0
1.191845862E1,1.623999953E0,-4.000000060E-1,6.473999977E0,6.686557527E0
1.192819638E1,2.194999933E0,-5.630000234E-1,6.394999981E0,6.784616311E0
1.193793392E1,1.902999997E0,-1.669999957E-1,5.933000088E0,6.232959813E0
1.194767154E1,1.360000014E0,1.150000021E-1,5.229000092E0,5.404189763E0
1.195740931E1,6.700000167E-1,2.939999998E-1,4.652999878E0,4.710174507E0
1.196714694E1,1.230000034E-1,4.110000134E-1,4.418000221E0,4.438780910E0
1.197688448E1,-3.440000117E-1,4.900000095E-1,4.491000175E0,4.530730470E0
1.198662225E1,-7.319999933E-1,3.639999926E-1,4.967000008E0,5.033826483E0
1.199635986E1,-1.208999991E0,1.220000014E-1,5.768000126E0,5.894606894E0
1.200609740E1,-1.544000030E0,-1.850000024E-1,6.559999943E0,6.741792072E0
1.201583516E1,-1.738000035E0,-5.450000167E-1,7.144999981E0,7.373512994E0
1.202557278E1,-1.812000036E0,-7.260000110E-1,7.031000137E0,7.296943407E0
1.203531033E1,-1.580999970E0,-7.509999871E-1,6.208000183E0,6.450025439E0
1.204504809E1,-1.049999952E0,-5.559999943E-1,5.099999905E0,5.236567093E0
1.205478571E1,-4.120000005E-1,-2.399999946E-1,3.746000051E0,3.776223032E0
1.206452325E1,3.299999982E-2,9.799999744E-2,2.433000088E0,2.435196589E0
1.207426103E1,2.020000070E-1,3.819999993E-1,1.378999949E0,1.445118978E0
1.208399865E1,6.899999827E-2,4.839999974E-1,6.710000038E-1,8.302156361E-1
1.209373621E1,-1.800000072E-1,4.399999976E-1,2.610000074E-1,5.423292398E-1
1.210347398E1,-4.589999914E-1,3.860000074E-1,7.400000095E-2,6.042789074E-1
1.211321159E1,-6.980000138E-1,3.580000103E-1,-2.119999975E-1,8.125958562E-1
1.212294935E1,-8.650000095E-1,3.459999859E-1,-6.650000215E-1,1.144624845E0
1.213268689E1,-8.790000081E-1,3.680000007E-1,-1.110000014E0,1.462930294E0
1.214242451E1,-6.990000010E-1,3.939999938E-1,-1.476999998E0,1.680882504E0
1.215216230E1,-5.780000091E-1,5.299999714E-1,-1.973999977E0,2.124066828E0
1.216189992E1,-6.000000238E-1,6.940000057E-1,-2.759999990E0,2.908476574E0
1.217163746E1,-6.999999881E-1,8.330000043E-1,-3.351999998E0,3.524172666E0
1.218137522E1,-8.889999986E-1,1.009999990E0,-3.579999924E0,3.824502639E0
1.219111275E1,-8.460000157E-1,1.019999981E0,-3.706000090E0,3.935803940E0
1.220085059E1,-1.113000035E0,1.100999951E0,-3.388999939E0,3.733134147E0
1.221058812E1,-8.180000186E-1,8.859999776E-1,-2.927999973E0,3.166591833E0
1.222032574E1,-7.900000215E-1,6.549999714E-1,-2.201999903E0,2.429388517E0
1.223006351E1,-9.570000172E-1,4.569999874E-1,-1.378000021E0,1.738845042E0
1.223980105E1,-1.077000022E0,2.360000014E-1,-7.390000224E-1,1.327307832E0
1.224953868E1,-1.246999979E0,1.679999977E-1,-4.740000069E-1,1.344585049E0
1.225927645E1,-1.327999949E0,1.870000064E-1,-5.780000091E-1,1.460355052E0
1.226901398E1,-1.266000032E0,3.199999928E-1,-8.230000138E-1,1.543530078E0
1.227875159E1,-9.179999828E-1,5.759999752E-1,-9.089999795E-1,1.414489626E0
1.228848936E1,-4.920000136E-1,7.689999938E-1,-9.490000010E-1,1.316824212E0
1.229822690E1,-1.720000058E-1,9.789999723E-1,-1.131999969E0,1.506469010E0
1.230796453E1,7.999999821E-2,1.075999975E0,-1.322000027E0,1.706417304E0
1.231770230E1,1.439999938E-1,1.139000058E0,-1.580999970E0,1.953872574E0
1.232743992E1,1.110000014E-1,1.110999942E0,-1.865000010E0,2.173675897E0
1.233717746E1,1.030000001E-1,9.720000029E-1,-1.965999961E0,2.195574834E0
1.234691521E1,2.479999959E-1,8.050000072E-1,-1.699000001E0,1.896346491E0
1.235665283E1,3.540000021E-1,6.370000243E-1,-1.243000031E0,1.440879630E0
1.236639037E1,5.590000153E-1,6.209999919E-1,-7.319999933E-1,1.110831219E0
1.237612813E1,1.009999990E0,5.720000267E-1,-8.299999684E-2,1.163689396E0
1.238586574E1,1.473999977E0,7.910000086E-1,7.680000067E-1,1.840701213E0
1.239560328E1,1.679999948E0,9.580000043E-1,1.600000024E0,2.510012731E0
1.240534104E1,1.835000038E0,9.029999971E-1,2.427999973E0,3.174557923E0
1.241507861E1,1.610999942E0,7.279999852E-1,3.203000069E0,3.658485237E0
1.242481615E1,9.959999919E-1,4.530000091E-1,3.743999958E0,3.900610296E0
1.243455392E1,3.459999859E-1,1.860000044E-1,4.223000050E0,4.241231120E0
1.244429154E1,-2.619999945E-1,-2.549999952E-1,4.844999790E0,4.858774739E0
1.245402908E1,-1.019000053E0,-6.129999757E-1,5.206999779E0,5.341065135E0
1.246376684E1,-1.419999957E0,-7.450000048E-1,5.271999836E0,5.510481572E0
1.247350446E1,-1.220000029E0,-6.660000086E-1,5.212999821E0,5.395120315E0
1.248324223E1,-7.080000043E-1,-4.740000069E-1,4.987999916E0,5.060245367E0
1.249297986E1,-2.160000056E-1,-2.010000050E-1,4.311999798E0,4.322082746E0
1.250271740E1,-3.700000048E-2,1.260000020E-1,3.135999918E0,3.138748236E0
1.251245516E1,-1.710000038E-1,4.609999955E-1,1.774000049E0,1.840879727E0
1.252219273E1,-3.770000041E-1,7.139999866E-1,5.400000215E-1,9.713521540E-1
1.253193028E1,-6.399999857E-1,8.830000162E-1,-5.180000067E-1,1.207316453E0
1.254166805E1,-8.080000281E-1,8.309999704E-1,-1.437000036E0,1.846183658E0
1.255140560E1,-8.600000143E-1,6.970000267E-1,-2.173000097E0,2.438716565E0
1.256114344E1,-7.929999828E-1,5.910000205E-1,-2.904999971E0,3.068738313E0
1.257088097E1,-6.899999976E-1,6.800000072E-1,-3.437999964E0,3.571882383E0
1.258061859E1,-6.579999924E-1,8.529999852E-1,-3.572999954E0,3.731876423E0
1.259035635E1,-8.050000072E-1,8.600000143E-1,-3.237999916E0,3.445615836E0
1.260009389E1,-1.697000027E0,2.759999931E-1,-3.153000116E0,3.591294310E0
1.260983149E1,-1.932000041E0,-6.980000138E-1,-3.578000069E0,4.125762071E0
1.261956926E1,-1.638000011E0,-2.939999998E-1,-3.140000105E0,3.553741788E0
1.262930679E1,-1.710000038E0,3.729999959E-1,-2.457000017E0,3.016633589E0
1.263904440E1,-1.582000017E0,-5.000000075E-2,-2.788000107E0,3.205958304E0
1.264878218E1,-1.106999993E0,-7.300000191E-1,-3.773999929E0,4.000178056E0
1.265851972E1,-7.500000298E-2,-1.110000014E0,-4.153999805E0,4.300399913E0
1.266825734E1,1.228999972E0,-1.327999949E0,-3.776000023E0,4.187147116E0
1.267799511E1,2.026999950E0,-1.550999999E0,-3.000999928E0,3.939585049E0
1.268773275E1,2.341000080E0,-1.799999952E0,-2.171999931E0,3.665769347E0
1.269747029E1,2.392999887E0,-2.121999979E0,-1.406000018E0,3.493732735E0
1.270720805E1,2.433000088E0,-2.283999920E0,-4.250000119E-1,3.364040736E0
1.271694569E1,2.355000019E0,-2.322000027E0,7.020000219E-1,3.380904205E0
1.272668322E1,2.259000063E0,-2.338000059E0,1.559000015E0,3.605524457E0
1.273642098E1,2.229000092E0,-2.319999933E0,1.988000035E0,3.781928772E0
1.274615860E1,2.352999926E0,-2.253000021E0,2.029999971E0,3.838426452E0
1.275589613E1,2.657000065E0,-2.234999895E0,1.870000005E0,3.943573746E0
1.276563388E1,2.901000023E0,-2.177000046E0,1.664000034E0,3.990492006E0
1.277537150E1,2.905999899E0,-1.993000031E0,1.462000012E0,3.815013574E0
1.278510906E1,2.796000004E0,-1.771999955E0,1.309999943E0,3.560014005E0
1.279484690E1,2.668999910E0,-1.631000042E0,1.284999967E0,3.381559784E0
1.280458445E1,2.525000095E0,-1.554000020E0,1.394000053E0,3.276244449E0
1.281432199E1,2.293999910E0,-1.427000046E0,1.486999989E0,3.083818037E0
1.282405976E1,2.210999966E0,-1.317999959E0,1.378999949E0,2.920151640E0
1.283379736E1,2.197000027E0,-1.143000007E0,1.047999978E0,2.689156389E0
1.284353515E1,1.827999949E0,-1.034999967E0,9.980000257E-1,2.325685447E0
1.285327269E1,2.786999941E0,-1.240000010E0,2.840000093E-1,3.063596693E0
1.286301028E1,3.664999962E0,-1.266000032E0,-8.299999833E-1,3.965334888E0
1.287274805E1,3.447999954E0,-9.850000143E-1,-4.399999976E-1,3.612828353E0
1.288248568E1,3.743000031E0,-8.439999819E-1,-2.189999968E-1,3.843220810E0
1.289222344E1,3.578000069E0,-5.989999771E-1,-1.999999955E-2,3.627848600E0
1.290196098E1,3.270999908E0,-4.510000050E-1,1.519999951E-1,3.305441787E0
1.291169852E1,2.734999895E0,-2.890000045E-1,2.099999934E-1,2.758232301E0
1.292143635E1,2.079999924E0,-1.110000014E-1,1.280000061E-1,2.086888757E0
1.293117389E1,1.307000041E0,6.199999899E-2,8.000000380E-3,1.308494214E0
1.294091151E1,6.890000105E-1,2.339999974E-1,-2.829999924E-1,7.807470838E-1
1.295064905E1,2.160000056E-1,4.210000038E-1,-7.030000091E-1,8.474113631E-1
1.296038682E1,-1.260000020E-1,6.660000086E-1,-1.220000029E0,1.395647549E0
1.297012444E1,-2.750000060E-1,8.309999704E-1,-1.832000017E0,2.030371891E0
1.297986221E1,-3.980000019E-1,9.179999828E-1,-2.476999998E0,2.671452219E0
1.298959973E1,-4.839999974E-1,1.039000034E0,-2.997999907E0,3.209638688E0
1.299933734E1,-4.609999955E-1,1.039000034E0,-3.325000048E0,3.513924784E0
1.300907509E1,-5.000000000E-1,8.870000243E-1,-3.456000090E0,3.602874639E0
1.301881263E1,-4.740000069E-1,4.639999866E-1,-3.507999897E0,3.570158998E0
1.302855026E1,-7.260000110E-1,2.820000052E-1,-3.230999947E0,3.323546400E0
1.303828802E1,-1.527999997E0,5.120000243E-1,-3.033999920E0,3.435416064E0
1.304802563E1,-2.194000006E0,4.760000110E-1,-3.117000103E0,3.841341130E0
1.305776317E1,-2.750000000E0,3.490000069E-1,-3.328999996E0,4.332036701E0
1.306750096E1,-3.407999992E0,3.630000055E-1,-3.441999912E0,4.857323990E0
1.307723857E1,-3.901999950E0,4.930000007E-1,-3.243000031E0,5.097617268E0
1.308697610E1,-4.162000179E0,6.240000129E-1,-2.766999960E0,5.036656658E0
1.309671387E1,-4.376999855E0,6.349999905E-1,-1.835999966E0,4.788762741E0
1.310645149E1,-4.361999989E0,6.529999971E-1,-3.849999905E-1,4.427378218E0
1.311618903E1,-4.125999928E0,7.519999743E-1,7.279999852E-1,4.256684548E0
1.312592679E1,-4.206999779E0,8.769999743E-1,1.416000009E0,4.524713485E0
1.313566441E1,-4.380000114E0,1.421000004E0,2.112999916E0,5.066400168E0
1.314540192E1,-4.905000210E0,2.490000010E0,2.809999943E0,6.176991726E0
1.315513970E1,-5.671999931E0,3.568000078E0,2.959000111E0,7.325154567E0
1.316487733E1,-6.414999962E0,3.903000116E0,2.765000105E0,8.001928517E0
1.317461510E1,-7.184000015E0,3.686000109E0,3.115999937E0,8.654819965E0
1.318435264E1,-7.797999859E0,3.069000006E0,4.843999863E0,9.679457500E0
1.319409025E1,-7.736000061E0,1.981999993E0,7.658999920E0,1.106500342E1
1.320382779E1,-7.048999786E0,9.689999819E-1,1.009399986E1,1.234974462E1
1.321356556E1,-6.208000183E0,5.159999728E-1,1.065400028E1,1.234152520E1
1.322330318E1,-4.827000141E0,5.400000140E-2,9.595000267E0,1.074089738E1
1.323304094E1,-3.002000093E0,-7.279999852E-1,9.055000305E0,9.567393536E0
1.324277856E1,-1.014000058E0,-1.327000022E0,8.954999924E0,9.109398927E0
1.325251610E1,6.150000095E-1,-1.812000036E0,8.541000366E0,8.752728512E0
1.326225387E1,1.776999950E0,-2.230000019E0,8.083999634E0,8.572145530E0
1.327199148E1,2.645999908E0,-2.585000038E0,7.461999893E0,8.328564289E0
1.328172904E1,3.176000118E0,-2.834000111E0,6.647999763E0,7.893949217E0
1.329146680E1,3.401999950E0,-2.983999968E0,5.763999939E0,7.328134467E0
1.330120442E1,3.492000103E0,-3.062000036E0,4.782000065E0,6.666140830E0
1.331094222E1,3.414999962E0,-3.128999949E0,3.588999987E0,5.859503931E0
1.332067977E1,3.184999943E0,-2.960000038E0,2.214999914E0,4.879759162E0
1.333041738E1,3.619999886E0,-2.987999916E0,8.489999771E-1,4.770046502E0
1.334015515E1,4.547999859E0,-3.523000002E0,-3.959999979E-1,5.766510880E0
1.334989269E1,5.370999813E0,-3.622999907E0,-1.567000031E0,6.665527467E0
1.335963031E1,5.856999874E0,-3.394999981E0,-2.125000000E0,7.095498390E0
1.336936808E1,5.975999832E0,-3.042000055E0,-2.457000017E0,7.141651589E0
1.337910563E1,5.455999851E0,-2.549000025E0,-3.323999882E0,6.878539868E0
1.338884324E1,4.334000111E0,-2.289000034E0,-4.761000156E0,6.833022801E0
1.339858101E1,3.750000000E0,-2.687999964E0,-5.241000175E0,6.982544425E0
1.340831855E1,3.210000038E0,-3.033999920E0,-5.188000202E0,6.813560146E0
1.341805617E1,2.710999966E0,-3.072999954E0,-4.602000237E0,6.162082092E0
1.342779394E1,2.418999910E0,-3.036000013E0,-3.953000069E0,5.540312824E0
1.343753147E1,2.348999977E0,-3.048000097E0,-3.335000038E0,5.092183298E0
1.344726908E1,2.364000082E0,-3.081000090E0,-2.848999977E0,4.816415556E0
1.345700687E1,2.234999895E0,-3.082000017E0,-2.448999882E0,4.526759222E0
1.346674442E1,1.998999953E0,-3.075999975E0,-2.019000053E0,4.187378401E0
1.347648202E1,1.751000047E0,-3.065999985E0,-1.325000048E0,3.771204343E0
1.348621978E1,1.590000033E0,-3.112999916E0,-2.599999905E-1,3.505205925E0
1.349595740E1,1.651999950E0,-3.173000097E0,1.136000037E0,3.753335788E0
1.350569494E1,1.751000047E0,-3.102999926E0,2.157000065E0,4.165004079E0
1.351543269E1,2.040999889E0,-3.119999886E0,2.654000044E0,4.576439235E0
1.352517031E1,2.384000063E0,-2.976000071E0,2.467999935E0,4.542142270E0
1.353490808E1,2.596999884E0,-2.627000093E0,2.040999889E0,4.220333925E0
1.354464561E1,2.443000078E0,-1.878000021E0,1.559000015E0,3.453348304E0
1.355438322E1,2.319999933E0,-1.103000045E0,8.600000143E-1,2.708986677E0
1.356412099E1,2.321000099E0,-5.820000172E-1,6.599999964E-2,2.393767215E0
1.357385853E1,2.198999882E0,-3.200000152E-2,-7.810000181E-1,2.333792088E0
1.358359615E1,1.988000035E0,4.329999983E-1,-1.475000024E0,2.513017749E0
1.359333369E1,1.662999988E0,7.440000176E-1,-1.828999996E0,2.581539458E0
1.360307153E1,1.463000059E0,7.590000033E-1,-1.697999954E0,2.366358811E0
1.361280906E1,1.343999982E0,5.009999871E-1,-1.014000058E0,1.756568546E0
1.362254682E1,1.202999949E0,1.860000044E-1,-6.800000370E-2,1.219191897E0
1.363228444E1,9.409999847E-1,-1.299999952E-1,9.290000200E-1,1.328691841E0
1.364202200E1,7.289999723E-1,-3.289999962E-1,1.577999949E0,1.769114411E0
1.365175978E1,6.549999714E-1,-3.700000048E-1,1.723999977E0,1.880984021E0
1.366149739E1,7.559999824E-1,-2.919999957E-1,1.371999979E0,1.593481695E0
1.367123492E1,8.759999871E-1,-8.600000292E-2,5.929999948E-1,1.061329813E0
1.368097269E1,1.024000049E0,1.000000015E-1,-3.959999979E-1,1.102448229E0
1.369071030E1,1.029999971E0,2.770000100E-1,-1.360999942E0,1.729147127E0
1.370044784E1,7.540000081E-1,3.630000055E-1,-2.131999969E0,2.290351258E0
1.371018561E1,2.430000007E-1,3.479999900E-1,-2.538000107E0,2.573246497E0
1.371992323E1,-3.490000069E-1,1.870000064E-1,-2.533999920E0,2.564746693E0
1.372966075E1,-8.009999990E-1,-8.799999952E-2,-2.003000021E0,2.159016925E0
1.373939852E1,-1.144000053E0,-2.790000141E-1,-1.322000027E0,1.770384478E0
1.374913612E1,-1.458999991E0,-3.849999905E-1,-9.229999781E-1,1.768851302E0
1.375887366E1,-1.615000010E0,-3.160000145E-1,-9.150000215E-1,1.882898319E0
1.376861150E1,-1.733000040E0,-2.619999945E-1,-1.202999949E0,2.125827372E0
1.377834904E1,-1.769999981E0,-1.469999999E-1,-1.625000000E0,2.407308441E0
1.378808658E1,-1.842000008E0,2.199999988E-2,-1.886000037E0,2.636369505E0
1.379782436E1,-2.036000013E0,1.850000024E-1,-1.990000010E0,2.853002119E0
1.380756196E1,-2.243999958E0,2.660000026E-1,-1.764000058E0,2.866703336E0
1.381729973E1,-2.377000093E0,3.689999878E-1,-1.042999983E0,2.621858005E0
1.382703730E1,-2.595000029E0,4.790000021E-1,-7.599999756E-2,2.639932225E0
1.383677491E1,-2.907000065E0,5.000000000E-1,9.549999833E-1,3.100431316E0
1.384651266E1,-3.358999968E0,5.230000019E-1,1.781999946E0,3.838220107E0
1.385625020E1,-3.821000099E0,5.180000067E-1,2.013000011E0,4.349774110E0
1.386598778E1,-4.236999989E0,4.490000010E-1,1.850000024E0,4.645026372E0
1.387572555E1,-4.453000069E0,5.040000081E-1,1.555999994E0,4.743876221E0
1.388546309E1,-4.231999874E0,2.700000107E-1,1.669000030E0,4.557223282E0
1.389520072E1,-3.792999983E0,-1.340000033E-1,2.431999922E0,4.507707676E0
1.390493849E1,-3.484999895E0,-3.540000021E-1,3.523000002E0,4.968105201E0
1.391467608E1,-3.398999929E0,-4.359999895E-1,4.310999870E0,5.507087832E0
1.392441362E1,-3.341000080E0,-5.379999876E-1,4.426000118E0,5.571463234E0
1.393415141E1,-3.322999954E0,-5.139999986E-1,3.990000010E0,5.217913833E0
1.394388903E1,-3.194999933E0,-4.339999855E-1,3.461999893E0,4.730943227E0
1.395362658E1,-2.790999889E0,-2.879999876E-1,3.279999971E0,4.316367013E0
1.396336435E1,-2.246999979E0,-1.580000073E-1,3.339999914E0,4.028594337E0
1.397310198E1,-1.876999974E0,-7.299999893E-2,3.433000088E0,3.913303912E0
1.398283952E1,-1.629999995E0,-1.430000067E-1,3.151999950E0,3.551401508E0
1.399257729E1,-1.628000021E0,-2.240000069E-1,2.565999985E0,3.047116012E0
1.400231491E1,-1.695999980E0,-3.490000069E-1,1.805999994E0,2.501969807E0
1.401205269E1,-1.725999951E0,-5.490000248E-1,1.106999993E0,2.122716619E0
1.402179023E1,-1.694000006E0,-7.089999914E-1,6.240000129E-1,1.939508449E0
1.403152786E1,-1.600999951E0,-9.070000052E-1,3.179999888E-1,1.867344062E0
1.404126563E1,-1.437999964E0,-1.054000020E0,4.000000190E-3,1.782912207E0
1.405100318E1,-1.159999967E0,-1.205000043E0,-4.370000064E-1,1.728755053E0
1.406074080E1,-8.970000148E-1,-1.322000027E0,-6.930000186E-1,1.741419571E0
1.407047858E1,-5.059999824E-1,-1.407999992E0,-6.380000114E-1,1.626512827E0
1.408021612E1,1.679999977E-1,-1.506000042E0,-4.799999893E-1,1.589547142E0
1.408995375E1,9.259999990E-1,-1.680999994E0,-3.510000110E-1,1.951009479E0
1.409969152E1,1.667000055E0,-1.871000051E0,-4.950000048E-1,2.554320924E0
1.410942906E1,2.303999901E0,-2.183000088E0,-8.899999857E-1,3.296362374E0
1.411916667E1,2.655999899E0,-2.539999962E0,-1.483000040E0,3.962981755E0
1.412890444E1,2.713999987E0,-2.982000113E0,-2.115999937E0,4.553633311E0
1.413864200E1,2.460000038E0,-3.303999901E0,-2.430000067E0,4.782563733E0
1.414837962E1,1.654999971E0,-3.266999960E0,-2.339999914E0,4.346022692E0
1.415811738E1,8.569999933E-1,-3.242000103E0,-1.243000031E0,3.576319719E0
1.416785493E1,4.839999974E-1,-3.132999897E0,3.779999912E-1,3.192620921E0
1.417759254E1,5.389999747E-1,-2.778000116E0,1.911000013E0,3.414634193E0
1.418733029E1,1.023000002E0,-2.348999977E0,3.224999905E0,4.118853515E0
1.419706783E1,1.654999971E0,-1.968999982E0,3.934999943E0,4.701086086E0
1.420680544E1,1.998999953E0,-1.460000038E0,3.611000061E0,4.378004382E0
1.421654321E1,1.840999961E0,-9.399999976E-1,2.138000011E0,2.973873720E0
1.422628071E1,1.434999943E0,-7.210000157E-1,5.920000076E-1,1.711586944E0
1.423601833E1,1.016000032E0,-7.540000081E-1,-2.599999905E-1,1.291654781E0
1.424575610E1,7.649999857E-1,-8.980000019E-1,-3.100000024E-1,1.219724962E0
1.425549371E1,9.679999948E-1,-1.149000049E0,2.489999980E-1,1.522900555E0
1.426523127E1,1.077000022E0,-1.396999955E0,8.610000014E-1,1.962870073E0
1.427496903E1,9.449999928E-1,-1.465999961E0,1.350999951E0,2.206214346E0
1.428470665E1,6.529999971E-1,-1.256000042E0,1.779000044E0,2.273496483E0
1.429444442E1,4.359999895E-1,-9.950000048E-1,1.960000038E0,2.240919711E0
1.430418196E1,4.280000031E-1,-6.090000272E-1,1.804999948E0,1.952457387E0
1.431391959E1,3.580000103E-1,2.099999972E-2,1.302999973E0,1.351448829E0
1.432365736E1,2.259999961E-1,7.070000172E-1,7.509999871E-1,1.055900565E0
1.433339490E1,2.370000035E-1,1.223999977E0,2.049999982E-1,1.263475344E0
1.434313252E1,3.479999900E-1,1.529000044E0,-2.080000043E-1,1.581837264E0
1.435287029E1,5.460000038E-1,1.751000047E0,-5.469999909E-1,1.913981755E0
1.436260782E1,7.879999876E-1,1.853000045E0,-9.909999967E-1,2.244244670E0
1.437234544E1,8.339999914E-1,1.927000046E0,-1.570000052E0,2.621790481E0
1.438208320E1,6.890000105E-1,1.932000041E0,-2.381000042E0,3.142690945E0
1.439182074E1,3.779999912E-1,1.957000017E0,-3.048000097E0,3.641845364E0
1.440155837E1,8.100000024E-2,2.076999903E0,-3.644000053E0,4.195143142E0
1.441129613E1,2.099999972E-2,2.111999989E0,-3.706000090E0,4.265609173E0
1.442103367E1,2.709999979E-1,1.810999990E0,-3.608999968E0,4.046979457E0
1.443077131E1,4.379999936E-1,1.715000033E0,-3.855000019E0,4.241944631E0
1.444050911E1,-2.730000019E-1,2.171999931E0,-3.497999907E0,4.126513789E0
1.445024667E1,-6.710000038E-1,1.805999994E0,-2.907999992E0,3.488314914E0
1.445998428E1,-1.202000022E0,1.228000045E0,-1.970000029E0,2.614132414E0
1.446972207E1,-1.983999968E0,8.629999757E-1,-4.909999967E-1,2.218581940E0
1.447945961E1,-2.434000015E0,4.580000043E-1,7.689999938E-1,2.593353248E0
1.448919724E1,-2.540999889E0,-3.299999982E-2,1.460000038E0,2.930762622E0
1.449893500E1,-2.622999907E0,-4.230000079E-1,1.353999972E0,2.982008290E0
1.450867261E1,-2.703999996E0,-4.900000095E-1,1.108000040E0,2.963001869E0
1.451841017E1,-2.496999979E0,-1.949999928E-1,1.116999984E0,2.742393636E0
1.452814793E1,-1.814000010E0,2.400000021E-2,1.226999998E0,2.190137218E0
1.453788547E1,-1.388000011E0,6.899999827E-2,1.236999989E0,1.860503696E0
1.454762308E1,-1.440000057E0,3.199999928E-1,9.259999990E-1,1.741687733E0
1.455736085E1,-2.283999920E0,9.580000043E-1,1.700000092E-2,2.476834399E0
1.456709840E1,-3.115000010E0,1.516000032E0,-1.753999949E0,3.883039657E0
1.457683602E1,-3.109999895E0,1.440999985E0,-2.971999884E0,4.536668779E0
1.458657380E1,-2.171999931E0,8.619999886E-1,-2.319000006E0,3.292170820E0
1.459631144E1,-1.230000019E0,3.350000083E-1,3.299999982E-2,1.275230980E0
1.460604899E1,-6.959999800E-1,-8.299999684E-2,2.164999962E0,2.275638329E0
1.461578676E1,-6.259999871E-1,-5.260000229E-1,3.332000017E0,3.430856471E0
1.462552440E1,-8.920000196E-1,-9.829999804E-1,3.907999992E0,4.127277182E0
1.463526194E1,-1.054999948E0,-1.401999950E0,4.342999935E0,4.684044960E0
1.464499971E1,-9.470000267E-1,-1.866999984E0,4.727000237E0,5.169819071E0
1.465473733E1,-5.519999862E-1,-2.219000101E0,4.539000034E0,5.082439055E0
1.466447485E1,-4.300000146E-2,-2.334000111E0,3.747999907E0,4.415530412E0
1.467421260E1,3.610000014E-1,-2.164000034E0,2.793999910E0,3.552415045E0
1.468395022E1,6.679999828E-1,-1.786000013E0,2.023000002E0,2.780026804E0
1.469368774E1,8.750000000E-1,-1.475999951E0,1.606999993E0,2.350882778E0
1.470342551E1,9.819999933E-1,-1.264999986E0,1.391999960E0,2.121841851E0
1.471316312E1,9.309999943E-1,-1.174999952E0,1.208999991E0,1.925893781E0
1.472290066E1,6.600000262E-1,-1.138000011E0,1.179000020E0,1.766546096E0
1.473263840E1,1.209999993E-1,-9.890000224E-1,1.077999949E0,1.467939350E0
1.474237601E1,-4.670000076E-1,-7.570000291E-1,5.099999905E-1,1.025299001E0
1.475211354E1,-9.769999981E-1,-5.149999857E-1,-3.630000055E-1,1.162550208E0
1.476185130E1,-1.389000058E0,-1.819999963E-1,-1.182999969E0,1.833557767E0
1.477158889E1,-1.462000012E0,5.000000075E-2,-1.541000009E0,2.124764708E0
1.478132643E1,-1.332999945E0,2.349999994E-1,-1.453999996E0,1.986511979E0
1.479106419E1,-1.177000046E0,3.100000024E-1,-1.427000046E0,1.875568778E0
1.480080181E1,-1.253000021E0,1.659999937E-1,-1.621000051E0,2.055530641E0
1.481053955E1,-1.467000008E0,-7.400000095E-2,-1.886000037E0,2.390514832E0
1.482027708E1,-1.276000023E0,-2.899999917E-1,-2.105000019E0,2.478568364E0
1.483001468E1,-7.820000052E-1,-5.019999743E-1,-1.896999955E0,2.112377053E0
1.483975222E1,-2.860000134E-1,-8.040000200E-1,-1.518000007E0,1.741417830E0
1.484949005E1,2.300000042E-1,-9.499999881E-1,-1.116000056E0,1.483528262E0
1.485922760E1,4.690000117E-1,-9.959999919E-1,-8.009999990E-1,1.361461712E0
1.486896510E1,3.370000124E-1,-1.057999969E0,-7.160000205E-1,1.321207391E0
1.487870287E1,2.199999988E-1,-1.194000006E0,-7.990000248E-1,1.453422531E0
1.488844047E1,3.000000026E-3,-1.409999967E0,-7.350000143E-1,1.590073560E0
1.489817824E1,8.600000292E-2,-1.644000053E0,-2.129999995E-1,1.659970233E0
1.490791577E1,6.520000100E-1,-1.883999944E0,8.140000105E-1,2.153405633E0
1.491765338E1,1.297999978E0,-2.040999889E0,2.035000086E0,3.160966599E0
1.492739113E1,1.616000056E0,-1.988999963E0,3.017999887E0,3.959280282E0
1.493712867E1,1.722000003E0,-1.893000007E0,3.599999905E0,4.416869066E0
1.494686628E1,1.909000039E0,-1.677000046E0,3.888999939E0,4.645528046E0
1.495660405E1,2.809999943E0,-1.707999945E0,3.023999929E0,4.467430924E0
1.496634160E1,2.885999918E0,-1.148000002E0,1.156999946E0,3.314445414E0
1.497607922E1,2.640000105E0,-6.179999709E-1,-5.299999714E-1,2.762684290E0
1.498581698E1,2.108000040E0,-1.940000057E-1,-1.807000041E0,2.783262352E0
1.499555452E1,1.536000013E0,-2.400000021E-2,-2.148999929E0,2.641604198E0
1.500529211E1,7.580000162E-1,-3.519999981E-1,-1.702999949E0,1.897017884E0
1.501502988E1,8.629999757E-1,-2.339999974E-1,-1.159999967E-1,9.016545658E-1
1.502476740E1,9.470000267E-1,-1.270000041E-1,4.490000010E-1,1.055717317E0
1.503450502E1,1.337000012E0,4.760000110E-1,4.100000113E-2,1.419797888E0
1.504424280E1,1.047999978E0,-1.040000021E-1,-1.059999943E0,1.494228842E0
1.505398033E1,2.919999957E-1,1.250000000E-1,-2.032999992E0,2.057663230E0
1.506371794E1,1.749999970E-1,3.630000055E-1,-2.299999952E0,2.335036142E0
1.507345570E1,4.589999914E-1,3.639999926E-1,-1.868999958E0,1.958657150E0
1.508319324E1,5.820000172E-1,2.689999938E-1,-1.026000023E0,1.209859936E0
1.509293085E1,4.709999859E-1,3.799999878E-2,-1.340000033E-1,4.911628931E-1
1.510266865E1,2.790000141E-1,-1.120000035E-1,6.959999800E-1,7.581563036E-1
1.511240619E1,2.090000063E-1,-1.040000021E-1,1.315999985E0,1.336545159E0
1.512214380E1,3.829999864E-1,1.099999994E-2,1.398000002E0,1.449556482E0
1.513188157E1,5.979999900E-1,2.469999939E-1,1.139000058E0,1.309936685E0
1.514161911E1,6.409999728E-1,4.790000021E-1,8.000000119E-1,1.131513140E0
1.515135695E1,5.360000134E-1,6.179999709E-1,5.120000243E-1,9.650720197E-1
1.516109449E1,3.829999864E-1,7.350000143E-1,2.619999945E-1,8.692283979E-1
1.517083203E1,2.509999871E-1,8.880000114E-1,-3.200000152E-2,9.233466380E-1
1.518056967E1,1.140000001E-1,1.105000019E0,-7.379999757E-1,1.333666003E0
1.519030744E1,-5.600000173E-2,1.439000010E0,-1.769999981E0,2.281831931E0
1.520004498E1,-2.969999909E-1,1.847000003E0,-2.845999956E0,3.405779464E0
1.520978260E1,-5.709999800E-1,2.315000057E0,-3.809999943E0,4.494592952E0
1.521952037E1,-9.909999967E-1,3.025000095E0,-4.581999779E0,5.579196048E0
1.522925791E1,-1.531999946E0,3.842999935E0,-4.686999798E0,6.251690926E0
1.523899556E1,-2.368000031E0,4.525000095E0,-4.064000130E0,6.526802208E0
1.524873333E1,-3.099999905E0,4.730999947E0,-3.023000002E0,6.413336800E0
1.525847093E1,-3.678999901E0,4.697999954E0,-1.993999958E0,6.291444959E0
1.526820847E1,-4.078000069E0,4.394999981E0,-1.146999955E0,6.104237732E0
1.527794624E1,-4.265999794E0,3.788000107E0,-4.169999957E-1,5.720278669E0
1.528768386E1,-4.053999901E0,3.025000095E0,1.099999994E-2,5.058227137E0
1.529742140E1,-3.253999949E0,2.305000067E0,3.070000112E-1,3.999473713E0
1.530715917E1,-2.426000118E0,1.901000023E0,8.690000176E-1,3.202255251E0
1.531689679E1,-1.019999981E0,7.390000224E-1,1.330999970E0,1.832507003E0
1.532663433E1,-2.029999942E-1,7.089999914E-1,1.529000044E0,1.697566234E0
1.533637209E1,9.980000257E-1,5.569999814E-1,6.190000176E-1,1.299774616E0
1.534610972E1,1.386999965E0,1.209999993E-1,1.302000046E0,1.906204087E0
1.535584725E1,1.710999966E0,-7.599999756E-2,8.399999738E-1,1.907589274E0
1.536558502E1,2.042999983E0,-1.509999931E-1,7.269999981E-1,2.173747668E0
1.537532261E1,2.032999992E0,-5.200000107E-2,3.829999864E-1,2.069415850E0
1.538506015E1,2.081000090E0,1.220000014E-1,-2.730000019E-1,2.102373510E0
1.539479793E1,1.921000004E0,7.590000033E-1,-1.429000020E0,2.511645492E0
1.540453554E1,2.094000101E0,1.233000040E0,-2.311000109E0,3.353482820E0
1.541427307E1,2.056999922E0,1.613999963E0,-2.601000071E0,3.688013818E0
1.542401084E1,1.972000003E0,1.753000021E0,-2.293999910E0,3.496316444E0
1.543374846E1,1.761000037E0,1.679999948E0,-1.973999977E0,3.133719334E0
1.544348598E1,1.307000041E0,1.588000059E0,-1.789999962E0,2.726553348E0
1.545322375E1,8.489999771E-1,1.646000028E0,-1.700000048E0,2.513984331E0
1.546296139E1,6.809999943E-1,2.108999968E0,-1.779000044E0,2.841915377E0
1.547269893E1,8.700000048E-1,2.950999975E0,-2.094000101E0,3.721577258E0
1.548243669E1,1.567000031E0,4.031000137E0,-2.424999952E0,4.958333992E0
1.549217431E1,2.226999998E0,5.038000107E0,-2.299000025E0,5.968783392E0
1.550191185E1,3.020999908E0,5.440000057E0,-1.794999957E0,6.476269444E0
1.551164962E1,3.578000069E0,5.452000141E0,-8.730000257E-1,6.579401118E0
1.552138722E1,3.947999954E0,4.666999817E0,5.849999785E-1,6.140831858E0
1.553112499E1,3.549000025E0,3.398000002E0,1.832000017E0,5.243856334E0
1.554086256E1,2.680000067E0,1.939000010E0,2.540999889E0,4.171187102E0
1.555060016E1,2.155999899E0,6.790000200E-1,2.763000011E0,3.569810311E0
1.556033795E1,2.127000093E0,-5.879999995E-1,2.864000082E0,3.615573242E0
1.557007549E1,1.985999942E0,-1.901999950E0,2.392999887E0,3.645304931E0
1.557981309E1,1.815999985E0,-3.490999937E0,1.429999948E0,4.186864740E0
1.558955086E1,1.447999954E0,-5.231999874E0,5.000000000E-1,5.451653561E0
1.559928842E1,7.099999785E-1,-7.136000156E0,-1.580000073E-1,7.172974432E0
1.560902603E1,-8.900000155E-2,-9.166000366E0,-9.549999833E-1,9.216046261E0
1.561876379E1,-6.230000257E-1,-1.101799965E1,-2.200999975E0,1.125294833E1
1.562850134E1,-7.300000191E-1,-1.261999989E1,-4.175000191E0,1.331269784E1
1.563823895E1,-6.510000229E-1,-1.379300022E1,-6.421999931E0,1.522868147E1
1.564797647E1,-8.460000157E-1,-1.403800011E1,-8.409000397E0,1.638573925E1
1.565771424E1,-1.049999952E0,-1.372700024E1,-9.911999702E0,1.696410250E1
1.566745185E1,-1.264000058E0,-1.327299976E1,-1.103699970E1,1.730854070E1
1.567718962E1,-1.626000047E0,-1.259200001E1,-1.148200035E1,1.711837236E1
1.568692716E1,-2.007999897E0,-1.192700005E1,-1.144900036E1,1.665427882E1
1.569666476E1,-2.357000113E0,-1.126399994E1,-1.127999973E1,1.611432711E1
1.570640252E1,-2.752000093E0,-1.065600014E1,-1.071800041E1,1.536227120E1
1.571614003E1,-3.559999943E0,-1.001000023E1,-9.640999794E0,1.434651809E1
1.572587764E1,-4.565000057E0,-9.128000259E0,-8.442000389E0,1.324488523E1
1.573561542E1,-5.058000088E0,-8.350000381E0,-7.545000076E0,1.233826963E1
1.574535296E1,-3.071000099E0,-8.239999771E0,-5.971000195E0,1.062927472E1
1.575509058E1,6.769999862E-1,-7.980000019E0,-3.591000080E0,8.776902122E0
1.576482835E1,4.195000172E0,-7.048999786E0,-2.540000081E-1,8.206761873E0
1.577456592E1,7.013000011E0,-6.633999825E0,3.476000071E0,1.026034597E1
1.578430353E1,8.364999771E0,-5.762000084E0,6.855000019E0,1.225417853E1
1.579404128E1,9.276000023E0,-5.126999855E0,1.141399956E1,1.557593303E1
1.580377882E1,1.152499962E1,-5.399000168E0,1.756999969E1,2.169515403E1
1.581351645E1,1.451200008E1,-5.540999889E0,2.334700012E1,2.804252558E1
1.582325422E1,1.700799942E1,-4.538000107E0,2.663699913E1,3.192796912E1
1.583299184E1,1.774900055E1,-2.812000036E0,2.724399948E1,3.263694030E1
1.584272938E1,1.671199989E1,-6.790000200E-1,2.604000092E1,3.094888737E1
1.585246715E1,1.433899975E1,1.427000046E0,2.395899963E1,2.795848541E1
1.586220469E1,1.141100025E1,3.058000088E0,2.166099930E1,2.467308618E1
1.587194232E1,8.357999802E0,4.426000118E0,1.934399986E1,2.153220770E1
1.588167986E1,5.736999989E0,5.690999985E0,1.732399940E1,1.911600390E1
1.589141769E1,3.868999958E0,6.795000076E0,1.560599995E1,1.745532644E1
1.590115523E1,3.078000069E0,7.585000038E0,1.375000000E1,1.600215017E1
1.591089303E1,2.779000044E0,7.862999916E0,1.103299999E1,1.383028191E1
1.592063064E1,2.315000057E0,7.721000195E0,7.600999832E0,1.107918173E1
1.593036818E1,1.726999998E0,6.987999916E0,3.766999960E0,8.124343698E0
1.594010594E1,1.264000058E0,6.011000156E0,1.350000054E-1,6.143943687E0
1.594984351E1,7.519999743E-1,5.034999847E0,-2.798000097E0,5.809090460E0
1.595958112E1,2.360000014E-1,3.974999905E0,-4.927999973E0,6.335732316E0
1.596931889E1,-5.090000033E-1,2.967999935E0,-7.008999825E0,7.628511202E0
1.597905651E1,-1.363999963E0,2.397000074E0,-8.762000084E0,9.185790697E0
1.598879405E1,-1.968000054E0,1.972000003E0,-1.027999973E1,1.065083108E1
1.599853181E1,-2.407999992E0,1.978999972E0,-1.112399960E1,1.155241411E1
1.600826942E1,-2.369999886E0,1.891999960E0,-1.114799976E1,1.155311482E1
1.601800696E1,-1.629999995E0,1.328999996E0,-1.051599979E1,1.072424322E1
1.602774472E1,-7.919999957E-1,5.979999900E-1,-9.657999992E0,9.708853271E0
1.603748234E1,-5.590000153E-1,-1.040000021E-1,-9.126999855E0,9.144693728E0
1.604721987E1,-8.700000048E-1,-8.349999785E-1,-8.762999535E0,8.845580016E0
1.605695764E1,-1.942999959E0,-1.281000018E0,-8.432000160E0,8.747275952E0
1.606669526E1,-3.007999897E0,-1.419999957E0,-8.144000053E0,8.797113170E0
1.607643280E1,-3.598000050E0,-1.360000014E0,-7.604000092E0,8.521503493E0
1.608617056E1,-3.533999920E0,-1.192999959E0,-6.278999805E0,7.303303560E0
1.609590818E1,-2.536000013E0,-1.297999978E0,-4.533999920E0,5.354741384E0
